submission_id,RT,age,author,block,correct,description,education,experiment_id,gender,happy,hungry,languages,org,org_pos,org_pos_ex,pause_times,reaction,rotate,target,target_pos,target_pos_ex,timeBCT,timeSpent,tired,trial_number,trial_type
14,,21,JannisAndTill,practice,true,Object-Biases(FIT),graduated_high_school,4,male,68,16,german,3,333.3333333333333|333.3333333333333,3,13070|3298|1850|1436|7325,wait,true,false,false|false,4,250,11.5522666667,17,1,practiceKeyPress
14,398,21,JannisAndTill,practice,true,Object-Biases(FIT),graduated_high_school,4,male,68,16,german,3,333.3333333333333|333.3333333333333,3,13070|3298|1850|1436|7325,space,false,4,0|333.3333333333333,4,200,11.5522666667,17,2,practiceKeyPress
14,403,21,JannisAndTill,practice,true,Object-Biases(FIT),graduated_high_school,4,male,68,16,german,3,333.3333333333333|333.3333333333333,3,13070|3298|1850|1436|7325,space,false,4,0|333.3333333333333,4,200,11.5522666667,17,3,practiceKeyPress
14,,21,JannisAndTill,practice,true,Object-Biases(FIT),graduated_high_school,4,male,68,16,german,1,333.3333333333333|0,3,13070|3298|1850|1436|7325,wait,false,false,false|false,4,150,11.5522666667,17,4,practiceKeyPress
14,,21,JannisAndTill,practice,true,Object-Biases(FIT),graduated_high_school,4,male,68,16,german,0,0|0,3,13070|3298|1850|1436|7325,wait,false,false,false|false,4,250,11.5522666667,17,5,practiceKeyPress
14,,21,JannisAndTill,practice,true,Object-Biases(FIT),graduated_high_school,4,male,68,16,german,3,333.3333333333333|333.3333333333333,3,13070|3298|1850|1436|7325,wait,true,false,false|false,4,200,11.5522666667,17,6,practiceKeyPress
14,421,21,JannisAndTill,practice,true,Object-Biases(FIT),graduated_high_school,4,male,68,16,german,3,333.3333333333333|333.3333333333333,3,13070|3298|1850|1436|7325,space,false,1,333.3333333333333|0,4,200,11.5522666667,17,7,practiceKeyPress
14,,21,JannisAndTill,practice,true,Object-Biases(FIT),graduated_high_school,4,male,68,16,german,3,333.3333333333333|333.3333333333333,3,13070|3298|1850|1436|7325,wait,true,false,false|false,4,150,11.5522666667,17,8,practiceKeyPress
14,,21,JannisAndTill,practice,true,Object-Biases(FIT),graduated_high_school,4,male,68,16,german,4,0|333.3333333333333,3,13070|3298|1850|1436|7325,wait,true,false,false|false,4,150,11.5522666667,17,9,practiceKeyPress
14,,21,JannisAndTill,practice,true,Object-Biases(FIT),graduated_high_school,4,male,68,16,german,3,333.3333333333333|333.3333333333333,3,13070|3298|1850|1436|7325,wait,false,false,false|false,4,250,11.5522666667,17,10,practiceKeyPress
14,309,21,JannisAndTill,1,true,Object-Biases(FIT),graduated_high_school,4,male,68,16,german,4,0|333.3333333333333,3,13070|3298|1850|1436|7325,space,false,4,0|333.3333333333333,4,200,11.5522666667,17,1,mainKeyPress
14,396,21,JannisAndTill,1,true,Object-Biases(FIT),graduated_high_school,4,male,68,16,german,0,0|0,3,13070|3298|1850|1436|7325,space,true,0,0|0,4,250,11.5522666667,17,2,mainKeyPress
14,,21,JannisAndTill,1,true,Object-Biases(FIT),graduated_high_school,4,male,68,16,german,0,0|0,3,13070|3298|1850|1436|7325,wait,true,false,false|false,4,200,11.5522666667,17,3,mainKeyPress
14,,21,JannisAndTill,1,true,Object-Biases(FIT),graduated_high_school,4,male,68,16,german,4,0|333.3333333333333,3,13070|3298|1850|1436|7325,wait,true,false,false|false,4,250,11.5522666667,17,4,mainKeyPress
14,,21,JannisAndTill,1,true,Object-Biases(FIT),graduated_high_school,4,male,68,16,german,0,0|0,3,13070|3298|1850|1436|7325,wait,false,false,false|false,4,150,11.5522666667,17,5,mainKeyPress
14,359,21,JannisAndTill,1,true,Object-Biases(FIT),graduated_high_school,4,male,68,16,german,1,333.3333333333333|0,3,13070|3298|1850|1436|7325,space,false,0,0|0,4,250,11.5522666667,17,6,mainKeyPress
14,370,21,JannisAndTill,1,true,Object-Biases(FIT),graduated_high_school,4,male,68,16,german,3,333.3333333333333|333.3333333333333,3,13070|3298|1850|1436|7325,space,true,4,0|333.3333333333333,4,200,11.5522666667,17,7,mainKeyPress
14,362,21,JannisAndTill,1,true,Object-Biases(FIT),graduated_high_school,4,male,68,16,german,0,0|0,3,13070|3298|1850|1436|7325,space,true,0,0|0,4,250,11.5522666667,17,8,mainKeyPress
14,,21,JannisAndTill,1,true,Object-Biases(FIT),graduated_high_school,4,male,68,16,german,4,0|333.3333333333333,3,13070|3298|1850|1436|7325,wait,true,false,false|false,4,200,11.5522666667,17,9,mainKeyPress
14,379,21,JannisAndTill,1,true,Object-Biases(FIT),graduated_high_school,4,male,68,16,german,3,333.3333333333333|333.3333333333333,3,13070|3298|1850|1436|7325,space,false,4,0|333.3333333333333,4,200,11.5522666667,17,10,mainKeyPress
14,,21,JannisAndTill,1,true,Object-Biases(FIT),graduated_high_school,4,male,68,16,german,0,0|0,3,13070|3298|1850|1436|7325,wait,false,false,false|false,4,150,11.5522666667,17,11,mainKeyPress
14,,21,JannisAndTill,1,true,Object-Biases(FIT),graduated_high_school,4,male,68,16,german,1,333.3333333333333|0,3,13070|3298|1850|1436|7325,wait,true,false,false|false,4,150,11.5522666667,17,12,mainKeyPress
14,362,21,JannisAndTill,1,true,Object-Biases(FIT),graduated_high_school,4,male,68,16,german,1,333.3333333333333|0,3,13070|3298|1850|1436|7325,space,true,1,333.3333333333333|0,4,250,11.5522666667,17,13,mainKeyPress
14,,21,JannisAndTill,1,true,Object-Biases(FIT),graduated_high_school,4,male,68,16,german,4,0|333.3333333333333,3,13070|3298|1850|1436|7325,wait,false,false,false|false,4,150,11.5522666667,17,14,mainKeyPress
14,,21,JannisAndTill,1,true,Object-Biases(FIT),graduated_high_school,4,male,68,16,german,1,333.3333333333333|0,3,13070|3298|1850|1436|7325,wait,false,false,false|false,4,200,11.5522666667,17,15,mainKeyPress
14,,21,JannisAndTill,1,true,Object-Biases(FIT),graduated_high_school,4,male,68,16,german,4,0|333.3333333333333,3,13070|3298|1850|1436|7325,wait,false,false,false|false,4,250,11.5522666667,17,16,mainKeyPress
14,,21,JannisAndTill,1,true,Object-Biases(FIT),graduated_high_school,4,male,68,16,german,3,333.3333333333333|333.3333333333333,3,13070|3298|1850|1436|7325,wait,false,false,false|false,4,200,11.5522666667,17,17,mainKeyPress
14,356,21,JannisAndTill,1,true,Object-Biases(FIT),graduated_high_school,4,male,68,16,german,1,333.3333333333333|0,3,13070|3298|1850|1436|7325,space,true,3,333.3333333333333|333.3333333333333,4,250,11.5522666667,17,18,mainKeyPress
14,340,21,JannisAndTill,1,true,Object-Biases(FIT),graduated_high_school,4,male,68,16,german,4,0|333.3333333333333,3,13070|3298|1850|1436|7325,space,true,4,0|333.3333333333333,4,150,11.5522666667,17,19,mainKeyPress
14,,21,JannisAndTill,1,true,Object-Biases(FIT),graduated_high_school,4,male,68,16,german,0,0|0,3,13070|3298|1850|1436|7325,wait,false,false,false|false,4,250,11.5522666667,17,20,mainKeyPress
14,,21,JannisAndTill,1,true,Object-Biases(FIT),graduated_high_school,4,male,68,16,german,0,0|0,3,13070|3298|1850|1436|7325,wait,true,false,false|false,4,200,11.5522666667,17,21,mainKeyPress
14,284,21,JannisAndTill,1,true,Object-Biases(FIT),graduated_high_school,4,male,68,16,german,4,0|333.3333333333333,3,13070|3298|1850|1436|7325,space,true,4,0|333.3333333333333,4,150,11.5522666667,17,22,mainKeyPress
14,327,21,JannisAndTill,1,true,Object-Biases(FIT),graduated_high_school,4,male,68,16,german,3,333.3333333333333|333.3333333333333,3,13070|3298|1850|1436|7325,space,true,3,333.3333333333333|333.3333333333333,4,150,11.5522666667,17,23,mainKeyPress
14,311,21,JannisAndTill,1,true,Object-Biases(FIT),graduated_high_school,4,male,68,16,german,4,0|333.3333333333333,3,13070|3298|1850|1436|7325,space,false,0,0|0,4,150,11.5522666667,17,24,mainKeyPress
14,376,21,JannisAndTill,1,true,Object-Biases(FIT),graduated_high_school,4,male,68,16,german,4,0|333.3333333333333,3,13070|3298|1850|1436|7325,space,true,4,0|333.3333333333333,4,150,11.5522666667,17,25,mainKeyPress
14,376,21,JannisAndTill,2,true,Object-Biases(FIT),graduated_high_school,4,male,68,16,german,4,0|333.3333333333333,3,13070|3298|1850|1436|7325,space,true,4,0|333.3333333333333,4,150,11.5522666667,17,26,mainKeyPress
14,316,21,JannisAndTill,2,true,Object-Biases(FIT),graduated_high_school,4,male,68,16,german,0,0|0,3,13070|3298|1850|1436|7325,space,false,1,333.3333333333333|0,4,200,11.5522666667,17,27,mainKeyPress
14,,21,JannisAndTill,2,true,Object-Biases(FIT),graduated_high_school,4,male,68,16,german,1,333.3333333333333|0,3,13070|3298|1850|1436|7325,wait,false,false,false|false,4,200,11.5522666667,17,28,mainKeyPress
14,358,21,JannisAndTill,2,true,Object-Biases(FIT),graduated_high_school,4,male,68,16,german,1,333.3333333333333|0,3,13070|3298|1850|1436|7325,space,false,1,333.3333333333333|0,4,250,11.5522666667,17,29,mainKeyPress
14,,21,JannisAndTill,2,true,Object-Biases(FIT),graduated_high_school,4,male,68,16,german,4,0|333.3333333333333,3,13070|3298|1850|1436|7325,wait,true,false,false|false,4,250,11.5522666667,17,30,mainKeyPress
14,343,21,JannisAndTill,2,true,Object-Biases(FIT),graduated_high_school,4,male,68,16,german,3,333.3333333333333|333.3333333333333,3,13070|3298|1850|1436|7325,space,true,3,333.3333333333333|333.3333333333333,4,250,11.5522666667,17,31,mainKeyPress
14,380,21,JannisAndTill,2,true,Object-Biases(FIT),graduated_high_school,4,male,68,16,german,4,0|333.3333333333333,3,13070|3298|1850|1436|7325,space,false,4,0|333.3333333333333,4,250,11.5522666667,17,32,mainKeyPress
14,335,21,JannisAndTill,2,true,Object-Biases(FIT),graduated_high_school,4,male,68,16,german,3,333.3333333333333|333.3333333333333,3,13070|3298|1850|1436|7325,space,false,4,0|333.3333333333333,4,200,11.5522666667,17,33,mainKeyPress
14,300,21,JannisAndTill,2,true,Object-Biases(FIT),graduated_high_school,4,male,68,16,german,3,333.3333333333333|333.3333333333333,3,13070|3298|1850|1436|7325,space,true,3,333.3333333333333|333.3333333333333,4,200,11.5522666667,17,34,mainKeyPress
14,,21,JannisAndTill,2,true,Object-Biases(FIT),graduated_high_school,4,male,68,16,german,4,0|333.3333333333333,3,13070|3298|1850|1436|7325,wait,false,false,false|false,4,250,11.5522666667,17,35,mainKeyPress
14,346,21,JannisAndTill,2,true,Object-Biases(FIT),graduated_high_school,4,male,68,16,german,4,0|333.3333333333333,3,13070|3298|1850|1436|7325,space,false,4,0|333.3333333333333,4,150,11.5522666667,17,36,mainKeyPress
14,380,21,JannisAndTill,2,true,Object-Biases(FIT),graduated_high_school,4,male,68,16,german,4,0|333.3333333333333,3,13070|3298|1850|1436|7325,space,true,4,0|333.3333333333333,4,250,11.5522666667,17,37,mainKeyPress
14,362,21,JannisAndTill,2,true,Object-Biases(FIT),graduated_high_school,4,male,68,16,german,0,0|0,3,13070|3298|1850|1436|7325,space,false,4,0|333.3333333333333,4,200,11.5522666667,17,38,mainKeyPress
14,300,21,JannisAndTill,2,true,Object-Biases(FIT),graduated_high_school,4,male,68,16,german,3,333.3333333333333|333.3333333333333,3,13070|3298|1850|1436|7325,space,false,1,333.3333333333333|0,4,200,11.5522666667,17,39,mainKeyPress
14,,21,JannisAndTill,2,true,Object-Biases(FIT),graduated_high_school,4,male,68,16,german,3,333.3333333333333|333.3333333333333,3,13070|3298|1850|1436|7325,wait,false,false,false|false,4,150,11.5522666667,17,40,mainKeyPress
14,298,21,JannisAndTill,2,true,Object-Biases(FIT),graduated_high_school,4,male,68,16,german,3,333.3333333333333|333.3333333333333,3,13070|3298|1850|1436|7325,space,false,4,0|333.3333333333333,4,250,11.5522666667,17,41,mainKeyPress
14,390,21,JannisAndTill,2,true,Object-Biases(FIT),graduated_high_school,4,male,68,16,german,1,333.3333333333333|0,3,13070|3298|1850|1436|7325,space,false,0,0|0,4,250,11.5522666667,17,42,mainKeyPress
14,295,21,JannisAndTill,2,true,Object-Biases(FIT),graduated_high_school,4,male,68,16,german,0,0|0,3,13070|3298|1850|1436|7325,space,true,0,0|0,4,250,11.5522666667,17,43,mainKeyPress
14,294,21,JannisAndTill,2,true,Object-Biases(FIT),graduated_high_school,4,male,68,16,german,3,333.3333333333333|333.3333333333333,3,13070|3298|1850|1436|7325,space,true,3,333.3333333333333|333.3333333333333,4,150,11.5522666667,17,44,mainKeyPress
14,262,21,JannisAndTill,2,true,Object-Biases(FIT),graduated_high_school,4,male,68,16,german,0,0|0,3,13070|3298|1850|1436|7325,space,false,0,0|0,4,250,11.5522666667,17,45,mainKeyPress
14,,21,JannisAndTill,2,true,Object-Biases(FIT),graduated_high_school,4,male,68,16,german,3,333.3333333333333|333.3333333333333,3,13070|3298|1850|1436|7325,wait,true,false,false|false,4,200,11.5522666667,17,46,mainKeyPress
14,320,21,JannisAndTill,2,true,Object-Biases(FIT),graduated_high_school,4,male,68,16,german,4,0|333.3333333333333,3,13070|3298|1850|1436|7325,space,true,0,0|0,4,200,11.5522666667,17,47,mainKeyPress
14,319,21,JannisAndTill,2,true,Object-Biases(FIT),graduated_high_school,4,male,68,16,german,4,0|333.3333333333333,3,13070|3298|1850|1436|7325,space,false,3,333.3333333333333|333.3333333333333,4,150,11.5522666667,17,48,mainKeyPress
14,270,21,JannisAndTill,2,true,Object-Biases(FIT),graduated_high_school,4,male,68,16,german,1,333.3333333333333|0,3,13070|3298|1850|1436|7325,space,false,1,333.3333333333333|0,4,150,11.5522666667,17,49,mainKeyPress
14,,21,JannisAndTill,2,true,Object-Biases(FIT),graduated_high_school,4,male,68,16,german,4,0|333.3333333333333,3,13070|3298|1850|1436|7325,wait,true,false,false|false,4,200,11.5522666667,17,50,mainKeyPress
14,381,21,JannisAndTill,3,true,Object-Biases(FIT),graduated_high_school,4,male,68,16,german,0,0|0,3,13070|3298|1850|1436|7325,space,false,0,0|0,4,200,11.5522666667,17,51,mainKeyPress
14,,21,JannisAndTill,3,true,Object-Biases(FIT),graduated_high_school,4,male,68,16,german,4,0|333.3333333333333,3,13070|3298|1850|1436|7325,wait,true,false,false|false,4,250,11.5522666667,17,52,mainKeyPress
14,335,21,JannisAndTill,3,true,Object-Biases(FIT),graduated_high_school,4,male,68,16,german,4,0|333.3333333333333,3,13070|3298|1850|1436|7325,space,false,4,0|333.3333333333333,4,150,11.5522666667,17,53,mainKeyPress
14,,21,JannisAndTill,3,true,Object-Biases(FIT),graduated_high_school,4,male,68,16,german,4,0|333.3333333333333,3,13070|3298|1850|1436|7325,wait,true,false,false|false,4,200,11.5522666667,17,54,mainKeyPress
14,,21,JannisAndTill,3,true,Object-Biases(FIT),graduated_high_school,4,male,68,16,german,4,0|333.3333333333333,3,13070|3298|1850|1436|7325,wait,false,false,false|false,4,150,11.5522666667,17,55,mainKeyPress
14,,21,JannisAndTill,3,true,Object-Biases(FIT),graduated_high_school,4,male,68,16,german,3,333.3333333333333|333.3333333333333,3,13070|3298|1850|1436|7325,wait,false,false,false|false,4,250,11.5522666667,17,56,mainKeyPress
14,343,21,JannisAndTill,3,true,Object-Biases(FIT),graduated_high_school,4,male,68,16,german,3,333.3333333333333|333.3333333333333,3,13070|3298|1850|1436|7325,space,true,3,333.3333333333333|333.3333333333333,4,250,11.5522666667,17,57,mainKeyPress
14,316,21,JannisAndTill,3,true,Object-Biases(FIT),graduated_high_school,4,male,68,16,german,1,333.3333333333333|0,3,13070|3298|1850|1436|7325,space,true,1,333.3333333333333|0,4,150,11.5522666667,17,58,mainKeyPress
14,,21,JannisAndTill,3,true,Object-Biases(FIT),graduated_high_school,4,male,68,16,german,1,333.3333333333333|0,3,13070|3298|1850|1436|7325,wait,true,false,false|false,4,250,11.5522666667,17,59,mainKeyPress
14,314,21,JannisAndTill,3,true,Object-Biases(FIT),graduated_high_school,4,male,68,16,german,4,0|333.3333333333333,3,13070|3298|1850|1436|7325,space,true,4,0|333.3333333333333,4,250,11.5522666667,17,60,mainKeyPress
14,383,21,JannisAndTill,3,true,Object-Biases(FIT),graduated_high_school,4,male,68,16,german,3,333.3333333333333|333.3333333333333,3,13070|3298|1850|1436|7325,space,true,1,333.3333333333333|0,4,200,11.5522666667,17,61,mainKeyPress
14,325,21,JannisAndTill,3,true,Object-Biases(FIT),graduated_high_school,4,male,68,16,german,1,333.3333333333333|0,3,13070|3298|1850|1436|7325,space,false,1,333.3333333333333|0,4,150,11.5522666667,17,62,mainKeyPress
14,300,21,JannisAndTill,3,true,Object-Biases(FIT),graduated_high_school,4,male,68,16,german,0,0|0,3,13070|3298|1850|1436|7325,space,true,0,0|0,4,250,11.5522666667,17,63,mainKeyPress
14,282,21,JannisAndTill,3,true,Object-Biases(FIT),graduated_high_school,4,male,68,16,german,1,333.3333333333333|0,3,13070|3298|1850|1436|7325,space,true,1,333.3333333333333|0,4,250,11.5522666667,17,64,mainKeyPress
14,,21,JannisAndTill,3,true,Object-Biases(FIT),graduated_high_school,4,male,68,16,german,3,333.3333333333333|333.3333333333333,3,13070|3298|1850|1436|7325,wait,false,false,false|false,4,150,11.5522666667,17,65,mainKeyPress
14,328,21,JannisAndTill,3,true,Object-Biases(FIT),graduated_high_school,4,male,68,16,german,4,0|333.3333333333333,3,13070|3298|1850|1436|7325,space,true,4,0|333.3333333333333,4,150,11.5522666667,17,66,mainKeyPress
14,405,21,JannisAndTill,3,true,Object-Biases(FIT),graduated_high_school,4,male,68,16,german,0,0|0,3,13070|3298|1850|1436|7325,space,false,0,0|0,4,150,11.5522666667,17,67,mainKeyPress
14,385,21,JannisAndTill,3,true,Object-Biases(FIT),graduated_high_school,4,male,68,16,german,3,333.3333333333333|333.3333333333333,3,13070|3298|1850|1436|7325,space,false,4,0|333.3333333333333,4,250,11.5522666667,17,68,mainKeyPress
14,362,21,JannisAndTill,3,true,Object-Biases(FIT),graduated_high_school,4,male,68,16,german,0,0|0,3,13070|3298|1850|1436|7325,space,true,1,333.3333333333333|0,4,150,11.5522666667,17,69,mainKeyPress
14,375,21,JannisAndTill,3,true,Object-Biases(FIT),graduated_high_school,4,male,68,16,german,4,0|333.3333333333333,3,13070|3298|1850|1436|7325,space,false,3,333.3333333333333|333.3333333333333,4,150,11.5522666667,17,70,mainKeyPress
14,358,21,JannisAndTill,3,true,Object-Biases(FIT),graduated_high_school,4,male,68,16,german,4,0|333.3333333333333,3,13070|3298|1850|1436|7325,space,true,3,333.3333333333333|333.3333333333333,4,150,11.5522666667,17,71,mainKeyPress
14,392,21,JannisAndTill,3,true,Object-Biases(FIT),graduated_high_school,4,male,68,16,german,4,0|333.3333333333333,3,13070|3298|1850|1436|7325,space,true,4,0|333.3333333333333,4,250,11.5522666667,17,72,mainKeyPress
14,323,21,JannisAndTill,3,true,Object-Biases(FIT),graduated_high_school,4,male,68,16,german,4,0|333.3333333333333,3,13070|3298|1850|1436|7325,space,false,4,0|333.3333333333333,4,250,11.5522666667,17,73,mainKeyPress
14,310,21,JannisAndTill,3,true,Object-Biases(FIT),graduated_high_school,4,male,68,16,german,0,0|0,3,13070|3298|1850|1436|7325,space,true,0,0|0,4,250,11.5522666667,17,74,mainKeyPress
14,333,21,JannisAndTill,3,true,Object-Biases(FIT),graduated_high_school,4,male,68,16,german,1,333.3333333333333|0,3,13070|3298|1850|1436|7325,space,false,0,0|0,4,200,11.5522666667,17,75,mainKeyPress
14,375,21,JannisAndTill,4,true,Object-Biases(FIT),graduated_high_school,4,male,68,16,german,1,333.3333333333333|0,3,13070|3298|1850|1436|7325,space,false,3,333.3333333333333|333.3333333333333,4,250,11.5522666667,17,76,mainKeyPress
14,362,21,JannisAndTill,4,true,Object-Biases(FIT),graduated_high_school,4,male,68,16,german,1,333.3333333333333|0,3,13070|3298|1850|1436|7325,space,false,0,0|0,4,250,11.5522666667,17,77,mainKeyPress
14,,21,JannisAndTill,4,true,Object-Biases(FIT),graduated_high_school,4,male,68,16,german,1,333.3333333333333|0,3,13070|3298|1850|1436|7325,wait,false,false,false|false,4,250,11.5522666667,17,78,mainKeyPress
14,,21,JannisAndTill,4,true,Object-Biases(FIT),graduated_high_school,4,male,68,16,german,0,0|0,3,13070|3298|1850|1436|7325,wait,true,false,false|false,4,200,11.5522666667,17,79,mainKeyPress
14,342,21,JannisAndTill,4,true,Object-Biases(FIT),graduated_high_school,4,male,68,16,german,1,333.3333333333333|0,3,13070|3298|1850|1436|7325,space,true,1,333.3333333333333|0,4,250,11.5522666667,17,80,mainKeyPress
14,352,21,JannisAndTill,4,true,Object-Biases(FIT),graduated_high_school,4,male,68,16,german,1,333.3333333333333|0,3,13070|3298|1850|1436|7325,space,true,1,333.3333333333333|0,4,200,11.5522666667,17,81,mainKeyPress
14,,21,JannisAndTill,4,true,Object-Biases(FIT),graduated_high_school,4,male,68,16,german,0,0|0,3,13070|3298|1850|1436|7325,wait,true,false,false|false,4,150,11.5522666667,17,82,mainKeyPress
14,281,21,JannisAndTill,4,true,Object-Biases(FIT),graduated_high_school,4,male,68,16,german,1,333.3333333333333|0,3,13070|3298|1850|1436|7325,space,true,1,333.3333333333333|0,4,250,11.5522666667,17,83,mainKeyPress
14,,21,JannisAndTill,4,true,Object-Biases(FIT),graduated_high_school,4,male,68,16,german,4,0|333.3333333333333,3,13070|3298|1850|1436|7325,wait,false,false,false|false,4,150,11.5522666667,17,84,mainKeyPress
14,410,21,JannisAndTill,4,true,Object-Biases(FIT),graduated_high_school,4,male,68,16,german,1,333.3333333333333|0,3,13070|3298|1850|1436|7325,space,true,1,333.3333333333333|0,4,250,11.5522666667,17,85,mainKeyPress
14,448,21,JannisAndTill,4,true,Object-Biases(FIT),graduated_high_school,4,male,68,16,german,4,0|333.3333333333333,3,13070|3298|1850|1436|7325,space,false,4,0|333.3333333333333,4,150,11.5522666667,17,86,mainKeyPress
14,404,21,JannisAndTill,4,true,Object-Biases(FIT),graduated_high_school,4,male,68,16,german,0,0|0,3,13070|3298|1850|1436|7325,space,true,1,333.3333333333333|0,4,150,11.5522666667,17,87,mainKeyPress
14,362,21,JannisAndTill,4,true,Object-Biases(FIT),graduated_high_school,4,male,68,16,german,4,0|333.3333333333333,3,13070|3298|1850|1436|7325,space,false,4,0|333.3333333333333,4,250,11.5522666667,17,88,mainKeyPress
14,299,21,JannisAndTill,4,true,Object-Biases(FIT),graduated_high_school,4,male,68,16,german,0,0|0,3,13070|3298|1850|1436|7325,space,false,0,0|0,4,200,11.5522666667,17,89,mainKeyPress
14,333,21,JannisAndTill,4,true,Object-Biases(FIT),graduated_high_school,4,male,68,16,german,3,333.3333333333333|333.3333333333333,3,13070|3298|1850|1436|7325,space,false,3,333.3333333333333|333.3333333333333,4,200,11.5522666667,17,90,mainKeyPress
14,,21,JannisAndTill,4,true,Object-Biases(FIT),graduated_high_school,4,male,68,16,german,3,333.3333333333333|333.3333333333333,3,13070|3298|1850|1436|7325,wait,false,false,false|false,4,250,11.5522666667,17,91,mainKeyPress
14,347,21,JannisAndTill,4,true,Object-Biases(FIT),graduated_high_school,4,male,68,16,german,4,0|333.3333333333333,3,13070|3298|1850|1436|7325,space,true,0,0|0,4,150,11.5522666667,17,92,mainKeyPress
14,330,21,JannisAndTill,4,true,Object-Biases(FIT),graduated_high_school,4,male,68,16,german,3,333.3333333333333|333.3333333333333,3,13070|3298|1850|1436|7325,space,false,3,333.3333333333333|333.3333333333333,4,250,11.5522666667,17,93,mainKeyPress
14,,21,JannisAndTill,4,true,Object-Biases(FIT),graduated_high_school,4,male,68,16,german,3,333.3333333333333|333.3333333333333,3,13070|3298|1850|1436|7325,wait,false,false,false|false,4,150,11.5522666667,17,94,mainKeyPress
14,309,21,JannisAndTill,4,true,Object-Biases(FIT),graduated_high_school,4,male,68,16,german,0,0|0,3,13070|3298|1850|1436|7325,space,false,0,0|0,4,200,11.5522666667,17,95,mainKeyPress
14,321,21,JannisAndTill,4,true,Object-Biases(FIT),graduated_high_school,4,male,68,16,german,0,0|0,3,13070|3298|1850|1436|7325,space,false,0,0|0,4,250,11.5522666667,17,96,mainKeyPress
14,454,21,JannisAndTill,4,true,Object-Biases(FIT),graduated_high_school,4,male,68,16,german,3,333.3333333333333|333.3333333333333,3,13070|3298|1850|1436|7325,space,false,4,0|333.3333333333333,4,200,11.5522666667,17,97,mainKeyPress
14,337,21,JannisAndTill,4,true,Object-Biases(FIT),graduated_high_school,4,male,68,16,german,1,333.3333333333333|0,3,13070|3298|1850|1436|7325,space,true,1,333.3333333333333|0,4,150,11.5522666667,17,98,mainKeyPress
14,441,21,JannisAndTill,4,true,Object-Biases(FIT),graduated_high_school,4,male,68,16,german,4,0|333.3333333333333,3,13070|3298|1850|1436|7325,space,true,0,0|0,4,200,11.5522666667,17,99,mainKeyPress
14,371,21,JannisAndTill,4,true,Object-Biases(FIT),graduated_high_school,4,male,68,16,german,0,0|0,3,13070|3298|1850|1436|7325,space,true,4,0|333.3333333333333,4,150,11.5522666667,17,100,mainKeyPress
14,,21,JannisAndTill,5,true,Object-Biases(FIT),graduated_high_school,4,male,68,16,german,0,0|0,3,13070|3298|1850|1436|7325,wait,false,false,false|false,4,250,11.5522666667,17,101,mainKeyPress
14,359,21,JannisAndTill,5,true,Object-Biases(FIT),graduated_high_school,4,male,68,16,german,1,333.3333333333333|0,3,13070|3298|1850|1436|7325,space,false,0,0|0,4,150,11.5522666667,17,102,mainKeyPress
14,428,21,JannisAndTill,5,true,Object-Biases(FIT),graduated_high_school,4,male,68,16,german,1,333.3333333333333|0,3,13070|3298|1850|1436|7325,space,true,1,333.3333333333333|0,4,200,11.5522666667,17,103,mainKeyPress
14,422,21,JannisAndTill,5,true,Object-Biases(FIT),graduated_high_school,4,male,68,16,german,4,0|333.3333333333333,3,13070|3298|1850|1436|7325,space,true,0,0|0,4,150,11.5522666667,17,104,mainKeyPress
14,347,21,JannisAndTill,5,true,Object-Biases(FIT),graduated_high_school,4,male,68,16,german,3,333.3333333333333|333.3333333333333,3,13070|3298|1850|1436|7325,space,false,1,333.3333333333333|0,4,250,11.5522666667,17,105,mainKeyPress
14,328,21,JannisAndTill,5,true,Object-Biases(FIT),graduated_high_school,4,male,68,16,german,0,0|0,3,13070|3298|1850|1436|7325,space,false,0,0|0,4,200,11.5522666667,17,106,mainKeyPress
14,248,21,JannisAndTill,5,true,Object-Biases(FIT),graduated_high_school,4,male,68,16,german,3,333.3333333333333|333.3333333333333,3,13070|3298|1850|1436|7325,space,false,3,333.3333333333333|333.3333333333333,4,150,11.5522666667,17,107,mainKeyPress
14,,21,JannisAndTill,5,true,Object-Biases(FIT),graduated_high_school,4,male,68,16,german,3,333.3333333333333|333.3333333333333,3,13070|3298|1850|1436|7325,wait,true,false,false|false,4,250,11.5522666667,17,108,mainKeyPress
14,361,21,JannisAndTill,5,true,Object-Biases(FIT),graduated_high_school,4,male,68,16,german,4,0|333.3333333333333,3,13070|3298|1850|1436|7325,space,true,4,0|333.3333333333333,4,150,11.5522666667,17,109,mainKeyPress
14,,21,JannisAndTill,5,true,Object-Biases(FIT),graduated_high_school,4,male,68,16,german,0,0|0,3,13070|3298|1850|1436|7325,wait,false,false,false|false,4,200,11.5522666667,17,110,mainKeyPress
14,282,21,JannisAndTill,5,true,Object-Biases(FIT),graduated_high_school,4,male,68,16,german,3,333.3333333333333|333.3333333333333,3,13070|3298|1850|1436|7325,space,false,3,333.3333333333333|333.3333333333333,4,200,11.5522666667,17,111,mainKeyPress
14,329,21,JannisAndTill,5,true,Object-Biases(FIT),graduated_high_school,4,male,68,16,german,3,333.3333333333333|333.3333333333333,3,13070|3298|1850|1436|7325,space,true,3,333.3333333333333|333.3333333333333,4,250,11.5522666667,17,112,mainKeyPress
14,318,21,JannisAndTill,5,true,Object-Biases(FIT),graduated_high_school,4,male,68,16,german,3,333.3333333333333|333.3333333333333,3,13070|3298|1850|1436|7325,space,true,3,333.3333333333333|333.3333333333333,4,250,11.5522666667,17,113,mainKeyPress
14,386,21,JannisAndTill,5,true,Object-Biases(FIT),graduated_high_school,4,male,68,16,german,1,333.3333333333333|0,3,13070|3298|1850|1436|7325,space,true,3,333.3333333333333|333.3333333333333,4,250,11.5522666667,17,114,mainKeyPress
14,326,21,JannisAndTill,5,true,Object-Biases(FIT),graduated_high_school,4,male,68,16,german,0,0|0,3,13070|3298|1850|1436|7325,space,false,0,0|0,4,150,11.5522666667,17,115,mainKeyPress
14,348,21,JannisAndTill,5,true,Object-Biases(FIT),graduated_high_school,4,male,68,16,german,0,0|0,3,13070|3298|1850|1436|7325,space,true,4,0|333.3333333333333,4,200,11.5522666667,17,116,mainKeyPress
14,271,21,JannisAndTill,5,true,Object-Biases(FIT),graduated_high_school,4,male,68,16,german,3,333.3333333333333|333.3333333333333,3,13070|3298|1850|1436|7325,space,false,3,333.3333333333333|333.3333333333333,4,250,11.5522666667,17,117,mainKeyPress
14,283,21,JannisAndTill,5,true,Object-Biases(FIT),graduated_high_school,4,male,68,16,german,1,333.3333333333333|0,3,13070|3298|1850|1436|7325,space,false,1,333.3333333333333|0,4,200,11.5522666667,17,118,mainKeyPress
14,272,21,JannisAndTill,5,true,Object-Biases(FIT),graduated_high_school,4,male,68,16,german,1,333.3333333333333|0,3,13070|3298|1850|1436|7325,space,true,0,0|0,4,250,11.5522666667,17,119,mainKeyPress
14,274,21,JannisAndTill,5,true,Object-Biases(FIT),graduated_high_school,4,male,68,16,german,3,333.3333333333333|333.3333333333333,3,13070|3298|1850|1436|7325,space,false,3,333.3333333333333|333.3333333333333,4,250,11.5522666667,17,120,mainKeyPress
14,284,21,JannisAndTill,5,true,Object-Biases(FIT),graduated_high_school,4,male,68,16,german,3,333.3333333333333|333.3333333333333,3,13070|3298|1850|1436|7325,space,true,3,333.3333333333333|333.3333333333333,4,250,11.5522666667,17,121,mainKeyPress
14,291,21,JannisAndTill,5,true,Object-Biases(FIT),graduated_high_school,4,male,68,16,german,1,333.3333333333333|0,3,13070|3298|1850|1436|7325,space,true,1,333.3333333333333|0,4,150,11.5522666667,17,122,mainKeyPress
14,273,21,JannisAndTill,5,true,Object-Biases(FIT),graduated_high_school,4,male,68,16,german,0,0|0,3,13070|3298|1850|1436|7325,space,true,0,0|0,4,250,11.5522666667,17,123,mainKeyPress
14,,21,JannisAndTill,5,true,Object-Biases(FIT),graduated_high_school,4,male,68,16,german,0,0|0,3,13070|3298|1850|1436|7325,wait,false,false,false|false,4,200,11.5522666667,17,124,mainKeyPress
14,,21,JannisAndTill,5,true,Object-Biases(FIT),graduated_high_school,4,male,68,16,german,4,0|333.3333333333333,3,13070|3298|1850|1436|7325,wait,false,false,false|false,4,150,11.5522666667,17,125,mainKeyPress
14,318,21,JannisAndTill,6,true,Object-Biases(FIT),graduated_high_school,4,male,68,16,german,1,333.3333333333333|0,3,13070|3298|1850|1436|7325,space,true,1,333.3333333333333|0,4,250,11.5522666667,17,126,mainKeyPress
14,329,21,JannisAndTill,6,true,Object-Biases(FIT),graduated_high_school,4,male,68,16,german,4,0|333.3333333333333,3,13070|3298|1850|1436|7325,space,true,4,0|333.3333333333333,4,250,11.5522666667,17,127,mainKeyPress
14,308,21,JannisAndTill,6,true,Object-Biases(FIT),graduated_high_school,4,male,68,16,german,3,333.3333333333333|333.3333333333333,3,13070|3298|1850|1436|7325,space,true,3,333.3333333333333|333.3333333333333,4,250,11.5522666667,17,128,mainKeyPress
14,,21,JannisAndTill,6,true,Object-Biases(FIT),graduated_high_school,4,male,68,16,german,0,0|0,3,13070|3298|1850|1436|7325,wait,false,false,false|false,4,200,11.5522666667,17,129,mainKeyPress
14,325,21,JannisAndTill,6,true,Object-Biases(FIT),graduated_high_school,4,male,68,16,german,0,0|0,3,13070|3298|1850|1436|7325,space,true,1,333.3333333333333|0,4,150,11.5522666667,17,130,mainKeyPress
14,444,21,JannisAndTill,6,true,Object-Biases(FIT),graduated_high_school,4,male,68,16,german,4,0|333.3333333333333,3,13070|3298|1850|1436|7325,space,false,4,0|333.3333333333333,4,150,11.5522666667,17,131,mainKeyPress
14,314,21,JannisAndTill,6,true,Object-Biases(FIT),graduated_high_school,4,male,68,16,german,1,333.3333333333333|0,3,13070|3298|1850|1436|7325,space,false,1,333.3333333333333|0,4,150,11.5522666667,17,132,mainKeyPress
14,312,21,JannisAndTill,6,true,Object-Biases(FIT),graduated_high_school,4,male,68,16,german,0,0|0,3,13070|3298|1850|1436|7325,space,false,4,0|333.3333333333333,4,250,11.5522666667,17,133,mainKeyPress
14,,21,JannisAndTill,6,true,Object-Biases(FIT),graduated_high_school,4,male,68,16,german,1,333.3333333333333|0,3,13070|3298|1850|1436|7325,wait,true,false,false|false,4,150,11.5522666667,17,134,mainKeyPress
14,,21,JannisAndTill,6,true,Object-Biases(FIT),graduated_high_school,4,male,68,16,german,1,333.3333333333333|0,3,13070|3298|1850|1436|7325,wait,false,false,false|false,4,150,11.5522666667,17,135,mainKeyPress
14,,21,JannisAndTill,6,true,Object-Biases(FIT),graduated_high_school,4,male,68,16,german,4,0|333.3333333333333,3,13070|3298|1850|1436|7325,wait,false,false,false|false,4,200,11.5522666667,17,136,mainKeyPress
14,341,21,JannisAndTill,6,true,Object-Biases(FIT),graduated_high_school,4,male,68,16,german,1,333.3333333333333|0,3,13070|3298|1850|1436|7325,space,true,3,333.3333333333333|333.3333333333333,4,150,11.5522666667,17,137,mainKeyPress
14,353,21,JannisAndTill,6,true,Object-Biases(FIT),graduated_high_school,4,male,68,16,german,0,0|0,3,13070|3298|1850|1436|7325,space,true,0,0|0,4,200,11.5522666667,17,138,mainKeyPress
14,127,21,JannisAndTill,6,true,Object-Biases(FIT),graduated_high_school,4,male,68,16,german,1,333.3333333333333|0,3,13070|3298|1850|1436|7325,space,true,3,333.3333333333333|333.3333333333333,4,200,11.5522666667,17,139,mainKeyPress
14,438,21,JannisAndTill,6,true,Object-Biases(FIT),graduated_high_school,4,male,68,16,german,0,0|0,3,13070|3298|1850|1436|7325,space,false,4,0|333.3333333333333,4,200,11.5522666667,17,140,mainKeyPress
14,434,21,JannisAndTill,6,true,Object-Biases(FIT),graduated_high_school,4,male,68,16,german,3,333.3333333333333|333.3333333333333,3,13070|3298|1850|1436|7325,space,false,1,333.3333333333333|0,4,250,11.5522666667,17,141,mainKeyPress
14,272,21,JannisAndTill,6,true,Object-Biases(FIT),graduated_high_school,4,male,68,16,german,3,333.3333333333333|333.3333333333333,3,13070|3298|1850|1436|7325,space,false,3,333.3333333333333|333.3333333333333,4,250,11.5522666667,17,142,mainKeyPress
14,361,21,JannisAndTill,6,true,Object-Biases(FIT),graduated_high_school,4,male,68,16,german,1,333.3333333333333|0,3,13070|3298|1850|1436|7325,space,true,0,0|0,4,200,11.5522666667,17,143,mainKeyPress
14,348,21,JannisAndTill,6,true,Object-Biases(FIT),graduated_high_school,4,male,68,16,german,0,0|0,3,13070|3298|1850|1436|7325,space,true,0,0|0,4,150,11.5522666667,17,144,mainKeyPress
14,310,21,JannisAndTill,6,true,Object-Biases(FIT),graduated_high_school,4,male,68,16,german,0,0|0,3,13070|3298|1850|1436|7325,space,false,0,0|0,4,200,11.5522666667,17,145,mainKeyPress
14,343,21,JannisAndTill,6,true,Object-Biases(FIT),graduated_high_school,4,male,68,16,german,1,333.3333333333333|0,3,13070|3298|1850|1436|7325,space,false,1,333.3333333333333|0,4,150,11.5522666667,17,146,mainKeyPress
14,360,21,JannisAndTill,6,true,Object-Biases(FIT),graduated_high_school,4,male,68,16,german,4,0|333.3333333333333,3,13070|3298|1850|1436|7325,space,true,3,333.3333333333333|333.3333333333333,4,200,11.5522666667,17,147,mainKeyPress
14,310,21,JannisAndTill,6,true,Object-Biases(FIT),graduated_high_school,4,male,68,16,german,0,0|0,3,13070|3298|1850|1436|7325,space,true,0,0|0,4,250,11.5522666667,17,148,mainKeyPress
14,301,21,JannisAndTill,6,true,Object-Biases(FIT),graduated_high_school,4,male,68,16,german,0,0|0,3,13070|3298|1850|1436|7325,space,true,0,0|0,4,200,11.5522666667,17,149,mainKeyPress
14,,21,JannisAndTill,6,true,Object-Biases(FIT),graduated_high_school,4,male,68,16,german,4,0|333.3333333333333,3,13070|3298|1850|1436|7325,wait,false,false,false|false,4,250,11.5522666667,17,150,mainKeyPress
15,448,52,JannisAndTill,practice,true,Object-Biases(FIT),,4,female,82,0,german,3,333.3333333333333|333.3333333333333,1,5157|2826|1498|1306|1401,space,true,3,333.3333333333333|333.3333333333333,1,250,18.0287,79,1,practiceKeyPress
15,389,52,JannisAndTill,practice,true,Object-Biases(FIT),,4,female,82,0,german,4,0|333.3333333333333,1,5157|2826|1498|1306|1401,space,false,3,333.3333333333333|333.3333333333333,1,150,18.0287,79,2,practiceKeyPress
15,340,52,JannisAndTill,practice,true,Object-Biases(FIT),,4,female,82,0,german,1,333.3333333333333|0,1,5157|2826|1498|1306|1401,space,false,3,333.3333333333333|333.3333333333333,1,250,18.0287,79,3,practiceKeyPress
15,,52,JannisAndTill,practice,true,Object-Biases(FIT),,4,female,82,0,german,0,0|0,1,5157|2826|1498|1306|1401,wait,true,false,false|false,1,200,18.0287,79,4,practiceKeyPress
15,364,52,JannisAndTill,practice,true,Object-Biases(FIT),,4,female,82,0,german,4,0|333.3333333333333,1,5157|2826|1498|1306|1401,space,true,0,0|0,1,200,18.0287,79,5,practiceKeyPress
15,,52,JannisAndTill,practice,true,Object-Biases(FIT),,4,female,82,0,german,3,333.3333333333333|333.3333333333333,1,5157|2826|1498|1306|1401,wait,false,false,false|false,1,250,18.0287,79,6,practiceKeyPress
15,302,52,JannisAndTill,practice,true,Object-Biases(FIT),,4,female,82,0,german,4,0|333.3333333333333,1,5157|2826|1498|1306|1401,space,true,4,0|333.3333333333333,1,150,18.0287,79,7,practiceKeyPress
15,426,52,JannisAndTill,practice,true,Object-Biases(FIT),,4,female,82,0,german,1,333.3333333333333|0,1,5157|2826|1498|1306|1401,space,true,3,333.3333333333333|333.3333333333333,1,200,18.0287,79,8,practiceKeyPress
15,321,52,JannisAndTill,practice,true,Object-Biases(FIT),,4,female,82,0,german,0,0|0,1,5157|2826|1498|1306|1401,space,true,0,0|0,1,250,18.0287,79,9,practiceKeyPress
15,307,52,JannisAndTill,practice,true,Object-Biases(FIT),,4,female,82,0,german,1,333.3333333333333|0,1,5157|2826|1498|1306|1401,space,false,1,333.3333333333333|0,1,200,18.0287,79,10,practiceKeyPress
15,304,52,JannisAndTill,1,true,Object-Biases(FIT),,4,female,82,0,german,1,333.3333333333333|0,1,5157|2826|1498|1306|1401,space,false,3,333.3333333333333|333.3333333333333,1,250,18.0287,79,1,mainKeyPress
15,307,52,JannisAndTill,1,true,Object-Biases(FIT),,4,female,82,0,german,0,0|0,1,5157|2826|1498|1306|1401,space,false,1,333.3333333333333|0,1,250,18.0287,79,2,mainKeyPress
15,,52,JannisAndTill,1,true,Object-Biases(FIT),,4,female,82,0,german,1,333.3333333333333|0,1,5157|2826|1498|1306|1401,wait,true,false,false|false,1,200,18.0287,79,3,mainKeyPress
15,379,52,JannisAndTill,1,true,Object-Biases(FIT),,4,female,82,0,german,0,0|0,1,5157|2826|1498|1306|1401,space,false,0,0|0,1,200,18.0287,79,4,mainKeyPress
15,382,52,JannisAndTill,1,true,Object-Biases(FIT),,4,female,82,0,german,0,0|0,1,5157|2826|1498|1306|1401,space,false,1,333.3333333333333|0,1,150,18.0287,79,5,mainKeyPress
15,345,52,JannisAndTill,1,true,Object-Biases(FIT),,4,female,82,0,german,4,0|333.3333333333333,1,5157|2826|1498|1306|1401,space,false,4,0|333.3333333333333,1,150,18.0287,79,6,mainKeyPress
15,357,52,JannisAndTill,1,true,Object-Biases(FIT),,4,female,82,0,german,3,333.3333333333333|333.3333333333333,1,5157|2826|1498|1306|1401,space,true,3,333.3333333333333|333.3333333333333,1,150,18.0287,79,7,mainKeyPress
15,339,52,JannisAndTill,1,true,Object-Biases(FIT),,4,female,82,0,german,0,0|0,1,5157|2826|1498|1306|1401,space,true,0,0|0,1,250,18.0287,79,8,mainKeyPress
15,342,52,JannisAndTill,1,true,Object-Biases(FIT),,4,female,82,0,german,3,333.3333333333333|333.3333333333333,1,5157|2826|1498|1306|1401,space,false,3,333.3333333333333|333.3333333333333,1,150,18.0287,79,9,mainKeyPress
15,,52,JannisAndTill,1,true,Object-Biases(FIT),,4,female,82,0,german,3,333.3333333333333|333.3333333333333,1,5157|2826|1498|1306|1401,wait,false,false,false|false,1,200,18.0287,79,10,mainKeyPress
15,,52,JannisAndTill,1,true,Object-Biases(FIT),,4,female,82,0,german,3,333.3333333333333|333.3333333333333,1,5157|2826|1498|1306|1401,wait,true,false,false|false,1,150,18.0287,79,11,mainKeyPress
15,305,52,JannisAndTill,1,true,Object-Biases(FIT),,4,female,82,0,german,3,333.3333333333333|333.3333333333333,1,5157|2826|1498|1306|1401,space,false,3,333.3333333333333|333.3333333333333,1,250,18.0287,79,12,mainKeyPress
15,135,52,JannisAndTill,1,true,Object-Biases(FIT),,4,female,82,0,german,4,0|333.3333333333333,1,5157|2826|1498|1306|1401,space,false,0,0|0,1,250,18.0287,79,13,mainKeyPress
15,334,52,JannisAndTill,1,true,Object-Biases(FIT),,4,female,82,0,german,0,0|0,1,5157|2826|1498|1306|1401,space,true,0,0|0,1,200,18.0287,79,14,mainKeyPress
15,,52,JannisAndTill,1,true,Object-Biases(FIT),,4,female,82,0,german,1,333.3333333333333|0,1,5157|2826|1498|1306|1401,wait,true,false,false|false,1,150,18.0287,79,15,mainKeyPress
15,108,52,JannisAndTill,1,true,Object-Biases(FIT),,4,female,82,0,german,0,0|0,1,5157|2826|1498|1306|1401,space,false,0,0|0,1,200,18.0287,79,16,mainKeyPress
15,330,52,JannisAndTill,1,true,Object-Biases(FIT),,4,female,82,0,german,1,333.3333333333333|0,1,5157|2826|1498|1306|1401,space,false,1,333.3333333333333|0,1,150,18.0287,79,17,mainKeyPress
15,,52,JannisAndTill,1,true,Object-Biases(FIT),,4,female,82,0,german,3,333.3333333333333|333.3333333333333,1,5157|2826|1498|1306|1401,wait,false,false,false|false,1,150,18.0287,79,18,mainKeyPress
15,352,52,JannisAndTill,1,true,Object-Biases(FIT),,4,female,82,0,german,4,0|333.3333333333333,1,5157|2826|1498|1306|1401,space,true,0,0|0,1,150,18.0287,79,19,mainKeyPress
15,550,52,JannisAndTill,1,true,Object-Biases(FIT),,4,female,82,0,german,1,333.3333333333333|0,1,5157|2826|1498|1306|1401,space,false,3,333.3333333333333|333.3333333333333,1,250,18.0287,79,20,mainKeyPress
15,333,52,JannisAndTill,1,true,Object-Biases(FIT),,4,female,82,0,german,4,0|333.3333333333333,1,5157|2826|1498|1306|1401,space,false,3,333.3333333333333|333.3333333333333,1,150,18.0287,79,21,mainKeyPress
15,305,52,JannisAndTill,1,true,Object-Biases(FIT),,4,female,82,0,german,1,333.3333333333333|0,1,5157|2826|1498|1306|1401,space,false,1,333.3333333333333|0,1,250,18.0287,79,22,mainKeyPress
15,304,52,JannisAndTill,1,true,Object-Biases(FIT),,4,female,82,0,german,4,0|333.3333333333333,1,5157|2826|1498|1306|1401,space,true,0,0|0,1,250,18.0287,79,23,mainKeyPress
15,339,52,JannisAndTill,1,true,Object-Biases(FIT),,4,female,82,0,german,4,0|333.3333333333333,1,5157|2826|1498|1306|1401,space,true,0,0|0,1,250,18.0287,79,24,mainKeyPress
15,328,52,JannisAndTill,1,true,Object-Biases(FIT),,4,female,82,0,german,4,0|333.3333333333333,1,5157|2826|1498|1306|1401,space,true,4,0|333.3333333333333,1,250,18.0287,79,25,mainKeyPress
15,,52,JannisAndTill,2,true,Object-Biases(FIT),,4,female,82,0,german,3,333.3333333333333|333.3333333333333,1,5157|2826|1498|1306|1401,wait,false,false,false|false,1,250,18.0287,79,26,mainKeyPress
15,316,52,JannisAndTill,2,true,Object-Biases(FIT),,4,female,82,0,german,3,333.3333333333333|333.3333333333333,1,5157|2826|1498|1306|1401,space,true,3,333.3333333333333|333.3333333333333,1,200,18.0287,79,27,mainKeyPress
15,306,52,JannisAndTill,2,true,Object-Biases(FIT),,4,female,82,0,german,1,333.3333333333333|0,1,5157|2826|1498|1306|1401,space,false,1,333.3333333333333|0,1,250,18.0287,79,28,mainKeyPress
15,,52,JannisAndTill,2,true,Object-Biases(FIT),,4,female,82,0,german,3,333.3333333333333|333.3333333333333,1,5157|2826|1498|1306|1401,wait,false,false,false|false,1,200,18.0287,79,29,mainKeyPress
15,319,52,JannisAndTill,2,true,Object-Biases(FIT),,4,female,82,0,german,1,333.3333333333333|0,1,5157|2826|1498|1306|1401,space,true,1,333.3333333333333|0,1,150,18.0287,79,30,mainKeyPress
15,,52,JannisAndTill,2,true,Object-Biases(FIT),,4,female,82,0,german,4,0|333.3333333333333,1,5157|2826|1498|1306|1401,wait,true,false,false|false,1,150,18.0287,79,31,mainKeyPress
15,333,52,JannisAndTill,2,true,Object-Biases(FIT),,4,female,82,0,german,0,0|0,1,5157|2826|1498|1306|1401,space,true,4,0|333.3333333333333,1,200,18.0287,79,32,mainKeyPress
15,379,52,JannisAndTill,2,true,Object-Biases(FIT),,4,female,82,0,german,3,333.3333333333333|333.3333333333333,1,5157|2826|1498|1306|1401,space,false,3,333.3333333333333|333.3333333333333,1,200,18.0287,79,33,mainKeyPress
15,335,52,JannisAndTill,2,true,Object-Biases(FIT),,4,female,82,0,german,4,0|333.3333333333333,1,5157|2826|1498|1306|1401,space,false,4,0|333.3333333333333,1,200,18.0287,79,34,mainKeyPress
15,341,52,JannisAndTill,2,true,Object-Biases(FIT),,4,female,82,0,german,0,0|0,1,5157|2826|1498|1306|1401,space,true,0,0|0,1,250,18.0287,79,35,mainKeyPress
15,441,52,JannisAndTill,2,true,Object-Biases(FIT),,4,female,82,0,german,0,0|0,1,5157|2826|1498|1306|1401,space,false,0,0|0,1,200,18.0287,79,36,mainKeyPress
15,,52,JannisAndTill,2,true,Object-Biases(FIT),,4,female,82,0,german,1,333.3333333333333|0,1,5157|2826|1498|1306|1401,wait,true,false,false|false,1,200,18.0287,79,37,mainKeyPress
15,353,52,JannisAndTill,2,true,Object-Biases(FIT),,4,female,82,0,german,3,333.3333333333333|333.3333333333333,1,5157|2826|1498|1306|1401,space,false,3,333.3333333333333|333.3333333333333,1,150,18.0287,79,38,mainKeyPress
15,,52,JannisAndTill,2,true,Object-Biases(FIT),,4,female,82,0,german,1,333.3333333333333|0,1,5157|2826|1498|1306|1401,wait,false,false,false|false,1,200,18.0287,79,39,mainKeyPress
15,,52,JannisAndTill,2,true,Object-Biases(FIT),,4,female,82,0,german,4,0|333.3333333333333,1,5157|2826|1498|1306|1401,wait,false,false,false|false,1,250,18.0287,79,40,mainKeyPress
15,422,52,JannisAndTill,2,true,Object-Biases(FIT),,4,female,82,0,german,4,0|333.3333333333333,1,5157|2826|1498|1306|1401,space,true,4,0|333.3333333333333,1,150,18.0287,79,41,mainKeyPress
15,284,52,JannisAndTill,2,true,Object-Biases(FIT),,4,female,82,0,german,4,0|333.3333333333333,1,5157|2826|1498|1306|1401,space,true,4,0|333.3333333333333,1,200,18.0287,79,42,mainKeyPress
15,344,52,JannisAndTill,2,true,Object-Biases(FIT),,4,female,82,0,german,4,0|333.3333333333333,1,5157|2826|1498|1306|1401,space,false,3,333.3333333333333|333.3333333333333,1,250,18.0287,79,43,mainKeyPress
15,357,52,JannisAndTill,2,true,Object-Biases(FIT),,4,female,82,0,german,3,333.3333333333333|333.3333333333333,1,5157|2826|1498|1306|1401,space,true,3,333.3333333333333|333.3333333333333,1,150,18.0287,79,44,mainKeyPress
15,,52,JannisAndTill,2,true,Object-Biases(FIT),,4,female,82,0,german,4,0|333.3333333333333,1,5157|2826|1498|1306|1401,wait,true,false,false|false,1,200,18.0287,79,45,mainKeyPress
15,332,52,JannisAndTill,2,true,Object-Biases(FIT),,4,female,82,0,german,0,0|0,1,5157|2826|1498|1306|1401,space,false,0,0|0,1,200,18.0287,79,46,mainKeyPress
15,318,52,JannisAndTill,2,true,Object-Biases(FIT),,4,female,82,0,german,4,0|333.3333333333333,1,5157|2826|1498|1306|1401,space,false,4,0|333.3333333333333,1,150,18.0287,79,47,mainKeyPress
15,355,52,JannisAndTill,2,true,Object-Biases(FIT),,4,female,82,0,german,1,333.3333333333333|0,1,5157|2826|1498|1306|1401,space,false,1,333.3333333333333|0,1,200,18.0287,79,48,mainKeyPress
15,377,52,JannisAndTill,2,true,Object-Biases(FIT),,4,female,82,0,german,3,333.3333333333333|333.3333333333333,1,5157|2826|1498|1306|1401,space,false,3,333.3333333333333|333.3333333333333,1,250,18.0287,79,49,mainKeyPress
15,373,52,JannisAndTill,2,true,Object-Biases(FIT),,4,female,82,0,german,4,0|333.3333333333333,1,5157|2826|1498|1306|1401,space,true,4,0|333.3333333333333,1,200,18.0287,79,50,mainKeyPress
15,,52,JannisAndTill,3,true,Object-Biases(FIT),,4,female,82,0,german,4,0|333.3333333333333,1,5157|2826|1498|1306|1401,wait,true,false,false|false,1,200,18.0287,79,51,mainKeyPress
15,352,52,JannisAndTill,3,true,Object-Biases(FIT),,4,female,82,0,german,3,333.3333333333333|333.3333333333333,1,5157|2826|1498|1306|1401,space,true,4,0|333.3333333333333,1,150,18.0287,79,52,mainKeyPress
15,373,52,JannisAndTill,3,true,Object-Biases(FIT),,4,female,82,0,german,4,0|333.3333333333333,1,5157|2826|1498|1306|1401,space,false,4,0|333.3333333333333,1,250,18.0287,79,53,mainKeyPress
15,419,52,JannisAndTill,3,true,Object-Biases(FIT),,4,female,82,0,german,3,333.3333333333333|333.3333333333333,1,5157|2826|1498|1306|1401,space,false,3,333.3333333333333|333.3333333333333,1,200,18.0287,79,54,mainKeyPress
15,354,52,JannisAndTill,3,true,Object-Biases(FIT),,4,female,82,0,german,4,0|333.3333333333333,1,5157|2826|1498|1306|1401,space,true,3,333.3333333333333|333.3333333333333,1,200,18.0287,79,55,mainKeyPress
15,421,52,JannisAndTill,3,true,Object-Biases(FIT),,4,female,82,0,german,4,0|333.3333333333333,1,5157|2826|1498|1306|1401,space,false,0,0|0,1,250,18.0287,79,56,mainKeyPress
15,451,52,JannisAndTill,3,true,Object-Biases(FIT),,4,female,82,0,german,4,0|333.3333333333333,1,5157|2826|1498|1306|1401,space,false,4,0|333.3333333333333,1,150,18.0287,79,57,mainKeyPress
15,,52,JannisAndTill,3,true,Object-Biases(FIT),,4,female,82,0,german,4,0|333.3333333333333,1,5157|2826|1498|1306|1401,wait,true,false,false|false,1,200,18.0287,79,58,mainKeyPress
15,366,52,JannisAndTill,3,true,Object-Biases(FIT),,4,female,82,0,german,1,333.3333333333333|0,1,5157|2826|1498|1306|1401,space,true,1,333.3333333333333|0,1,250,18.0287,79,59,mainKeyPress
15,,52,JannisAndTill,3,true,Object-Biases(FIT),,4,female,82,0,german,4,0|333.3333333333333,1,5157|2826|1498|1306|1401,wait,false,false,false|false,1,150,18.0287,79,60,mainKeyPress
15,279,52,JannisAndTill,3,true,Object-Biases(FIT),,4,female,82,0,german,3,333.3333333333333|333.3333333333333,1,5157|2826|1498|1306|1401,space,true,3,333.3333333333333|333.3333333333333,1,150,18.0287,79,61,mainKeyPress
15,344,52,JannisAndTill,3,true,Object-Biases(FIT),,4,female,82,0,german,4,0|333.3333333333333,1,5157|2826|1498|1306|1401,space,false,0,0|0,1,200,18.0287,79,62,mainKeyPress
15,342,52,JannisAndTill,3,true,Object-Biases(FIT),,4,female,82,0,german,4,0|333.3333333333333,1,5157|2826|1498|1306|1401,space,true,4,0|333.3333333333333,1,250,18.0287,79,63,mainKeyPress
15,368,52,JannisAndTill,3,true,Object-Biases(FIT),,4,female,82,0,german,1,333.3333333333333|0,1,5157|2826|1498|1306|1401,space,true,1,333.3333333333333|0,1,150,18.0287,79,64,mainKeyPress
15,,52,JannisAndTill,3,true,Object-Biases(FIT),,4,female,82,0,german,0,0|0,1,5157|2826|1498|1306|1401,wait,false,false,false|false,1,200,18.0287,79,65,mainKeyPress
15,,52,JannisAndTill,3,true,Object-Biases(FIT),,4,female,82,0,german,1,333.3333333333333|0,1,5157|2826|1498|1306|1401,wait,true,false,false|false,1,150,18.0287,79,66,mainKeyPress
15,374,52,JannisAndTill,3,true,Object-Biases(FIT),,4,female,82,0,german,1,333.3333333333333|0,1,5157|2826|1498|1306|1401,space,true,3,333.3333333333333|333.3333333333333,1,250,18.0287,79,67,mainKeyPress
15,,52,JannisAndTill,3,true,Object-Biases(FIT),,4,female,82,0,german,3,333.3333333333333|333.3333333333333,1,5157|2826|1498|1306|1401,wait,true,false,false|false,1,200,18.0287,79,68,mainKeyPress
15,350,52,JannisAndTill,3,true,Object-Biases(FIT),,4,female,82,0,german,3,333.3333333333333|333.3333333333333,1,5157|2826|1498|1306|1401,space,true,3,333.3333333333333|333.3333333333333,1,150,18.0287,79,69,mainKeyPress
15,368,52,JannisAndTill,3,true,Object-Biases(FIT),,4,female,82,0,german,4,0|333.3333333333333,1,5157|2826|1498|1306|1401,space,false,4,0|333.3333333333333,1,150,18.0287,79,70,mainKeyPress
15,444,52,JannisAndTill,3,true,Object-Biases(FIT),,4,female,82,0,german,0,0|0,1,5157|2826|1498|1306|1401,space,false,0,0|0,1,200,18.0287,79,71,mainKeyPress
15,274,52,JannisAndTill,3,true,Object-Biases(FIT),,4,female,82,0,german,3,333.3333333333333|333.3333333333333,1,5157|2826|1498|1306|1401,space,true,3,333.3333333333333|333.3333333333333,1,150,18.0287,79,72,mainKeyPress
15,395,52,JannisAndTill,3,true,Object-Biases(FIT),,4,female,82,0,german,0,0|0,1,5157|2826|1498|1306|1401,space,false,0,0|0,1,150,18.0287,79,73,mainKeyPress
15,418,52,JannisAndTill,3,true,Object-Biases(FIT),,4,female,82,0,german,3,333.3333333333333|333.3333333333333,1,5157|2826|1498|1306|1401,space,true,3,333.3333333333333|333.3333333333333,1,200,18.0287,79,74,mainKeyPress
15,367,52,JannisAndTill,3,true,Object-Biases(FIT),,4,female,82,0,german,0,0|0,1,5157|2826|1498|1306|1401,space,true,0,0|0,1,150,18.0287,79,75,mainKeyPress
15,,52,JannisAndTill,4,true,Object-Biases(FIT),,4,female,82,0,german,3,333.3333333333333|333.3333333333333,1,5157|2826|1498|1306|1401,wait,false,false,false|false,1,150,18.0287,79,76,mainKeyPress
15,359,52,JannisAndTill,4,true,Object-Biases(FIT),,4,female,82,0,german,4,0|333.3333333333333,1,5157|2826|1498|1306|1401,space,true,0,0|0,1,150,18.0287,79,77,mainKeyPress
15,347,52,JannisAndTill,4,true,Object-Biases(FIT),,4,female,82,0,german,3,333.3333333333333|333.3333333333333,1,5157|2826|1498|1306|1401,space,false,3,333.3333333333333|333.3333333333333,1,150,18.0287,79,78,mainKeyPress
15,413,52,JannisAndTill,4,true,Object-Biases(FIT),,4,female,82,0,german,4,0|333.3333333333333,1,5157|2826|1498|1306|1401,space,true,0,0|0,1,150,18.0287,79,79,mainKeyPress
15,362,52,JannisAndTill,4,true,Object-Biases(FIT),,4,female,82,0,german,1,333.3333333333333|0,1,5157|2826|1498|1306|1401,space,false,1,333.3333333333333|0,1,150,18.0287,79,80,mainKeyPress
15,326,52,JannisAndTill,4,true,Object-Biases(FIT),,4,female,82,0,german,0,0|0,1,5157|2826|1498|1306|1401,space,true,0,0|0,1,200,18.0287,79,81,mainKeyPress
15,314,52,JannisAndTill,4,true,Object-Biases(FIT),,4,female,82,0,german,0,0|0,1,5157|2826|1498|1306|1401,space,false,0,0|0,1,200,18.0287,79,82,mainKeyPress
15,376,52,JannisAndTill,4,true,Object-Biases(FIT),,4,female,82,0,german,4,0|333.3333333333333,1,5157|2826|1498|1306|1401,space,false,4,0|333.3333333333333,1,250,18.0287,79,83,mainKeyPress
15,396,52,JannisAndTill,4,true,Object-Biases(FIT),,4,female,82,0,german,4,0|333.3333333333333,1,5157|2826|1498|1306|1401,space,true,0,0|0,1,200,18.0287,79,84,mainKeyPress
15,384,52,JannisAndTill,4,true,Object-Biases(FIT),,4,female,82,0,german,4,0|333.3333333333333,1,5157|2826|1498|1306|1401,space,true,4,0|333.3333333333333,1,150,18.0287,79,85,mainKeyPress
15,,52,JannisAndTill,4,true,Object-Biases(FIT),,4,female,82,0,german,4,0|333.3333333333333,1,5157|2826|1498|1306|1401,wait,false,false,false|false,1,200,18.0287,79,86,mainKeyPress
15,345,52,JannisAndTill,4,true,Object-Biases(FIT),,4,female,82,0,german,3,333.3333333333333|333.3333333333333,1,5157|2826|1498|1306|1401,space,false,3,333.3333333333333|333.3333333333333,1,150,18.0287,79,87,mainKeyPress
15,,52,JannisAndTill,4,true,Object-Biases(FIT),,4,female,82,0,german,0,0|0,1,5157|2826|1498|1306|1401,wait,false,false,false|false,1,150,18.0287,79,88,mainKeyPress
15,415,52,JannisAndTill,4,true,Object-Biases(FIT),,4,female,82,0,german,1,333.3333333333333|0,1,5157|2826|1498|1306|1401,space,true,1,333.3333333333333|0,1,150,18.0287,79,89,mainKeyPress
15,,52,JannisAndTill,4,true,Object-Biases(FIT),,4,female,82,0,german,3,333.3333333333333|333.3333333333333,1,5157|2826|1498|1306|1401,wait,false,false,false|false,1,250,18.0287,79,90,mainKeyPress
15,,52,JannisAndTill,4,true,Object-Biases(FIT),,4,female,82,0,german,1,333.3333333333333|0,1,5157|2826|1498|1306|1401,wait,true,false,false|false,1,200,18.0287,79,91,mainKeyPress
15,334,52,JannisAndTill,4,true,Object-Biases(FIT),,4,female,82,0,german,0,0|0,1,5157|2826|1498|1306|1401,space,true,0,0|0,1,200,18.0287,79,92,mainKeyPress
15,393,52,JannisAndTill,4,true,Object-Biases(FIT),,4,female,82,0,german,3,333.3333333333333|333.3333333333333,1,5157|2826|1498|1306|1401,space,false,4,0|333.3333333333333,1,200,18.0287,79,93,mainKeyPress
15,374,52,JannisAndTill,4,true,Object-Biases(FIT),,4,female,82,0,german,4,0|333.3333333333333,1,5157|2826|1498|1306|1401,space,false,3,333.3333333333333|333.3333333333333,1,150,18.0287,79,94,mainKeyPress
15,403,52,JannisAndTill,4,true,Object-Biases(FIT),,4,female,82,0,german,3,333.3333333333333|333.3333333333333,1,5157|2826|1498|1306|1401,space,true,1,333.3333333333333|0,1,200,18.0287,79,95,mainKeyPress
15,408,52,JannisAndTill,4,true,Object-Biases(FIT),,4,female,82,0,german,1,333.3333333333333|0,1,5157|2826|1498|1306|1401,space,true,0,0|0,1,150,18.0287,79,96,mainKeyPress
15,350,52,JannisAndTill,4,true,Object-Biases(FIT),,4,female,82,0,german,0,0|0,1,5157|2826|1498|1306|1401,space,false,0,0|0,1,250,18.0287,79,97,mainKeyPress
15,,52,JannisAndTill,4,true,Object-Biases(FIT),,4,female,82,0,german,0,0|0,1,5157|2826|1498|1306|1401,wait,false,false,false|false,1,250,18.0287,79,98,mainKeyPress
15,402,52,JannisAndTill,4,true,Object-Biases(FIT),,4,female,82,0,german,1,333.3333333333333|0,1,5157|2826|1498|1306|1401,space,false,1,333.3333333333333|0,1,200,18.0287,79,99,mainKeyPress
15,405,52,JannisAndTill,4,true,Object-Biases(FIT),,4,female,82,0,german,1,333.3333333333333|0,1,5157|2826|1498|1306|1401,space,true,0,0|0,1,150,18.0287,79,100,mainKeyPress
15,441,52,JannisAndTill,5,true,Object-Biases(FIT),,4,female,82,0,german,3,333.3333333333333|333.3333333333333,1,5157|2826|1498|1306|1401,space,true,1,333.3333333333333|0,1,250,18.0287,79,101,mainKeyPress
15,395,52,JannisAndTill,5,true,Object-Biases(FIT),,4,female,82,0,german,0,0|0,1,5157|2826|1498|1306|1401,space,true,0,0|0,1,250,18.0287,79,102,mainKeyPress
15,375,52,JannisAndTill,5,true,Object-Biases(FIT),,4,female,82,0,german,4,0|333.3333333333333,1,5157|2826|1498|1306|1401,space,true,4,0|333.3333333333333,1,200,18.0287,79,103,mainKeyPress
15,358,52,JannisAndTill,5,true,Object-Biases(FIT),,4,female,82,0,german,0,0|0,1,5157|2826|1498|1306|1401,space,false,0,0|0,1,250,18.0287,79,104,mainKeyPress
15,395,52,JannisAndTill,5,true,Object-Biases(FIT),,4,female,82,0,german,3,333.3333333333333|333.3333333333333,1,5157|2826|1498|1306|1401,space,false,1,333.3333333333333|0,1,200,18.0287,79,105,mainKeyPress
15,314,52,JannisAndTill,5,true,Object-Biases(FIT),,4,female,82,0,german,1,333.3333333333333|0,1,5157|2826|1498|1306|1401,space,false,1,333.3333333333333|0,1,250,18.0287,79,106,mainKeyPress
15,,52,JannisAndTill,5,true,Object-Biases(FIT),,4,female,82,0,german,3,333.3333333333333|333.3333333333333,1,5157|2826|1498|1306|1401,wait,true,false,false|false,1,150,18.0287,79,107,mainKeyPress
15,344,52,JannisAndTill,5,true,Object-Biases(FIT),,4,female,82,0,german,1,333.3333333333333|0,1,5157|2826|1498|1306|1401,space,false,0,0|0,1,150,18.0287,79,108,mainKeyPress
15,,52,JannisAndTill,5,true,Object-Biases(FIT),,4,female,82,0,german,0,0|0,1,5157|2826|1498|1306|1401,wait,false,false,false|false,1,150,18.0287,79,109,mainKeyPress
15,367,52,JannisAndTill,5,true,Object-Biases(FIT),,4,female,82,0,german,1,333.3333333333333|0,1,5157|2826|1498|1306|1401,space,true,1,333.3333333333333|0,1,200,18.0287,79,110,mainKeyPress
15,,52,JannisAndTill,5,true,Object-Biases(FIT),,4,female,82,0,german,0,0|0,1,5157|2826|1498|1306|1401,wait,false,false,false|false,1,200,18.0287,79,111,mainKeyPress
15,344,52,JannisAndTill,5,true,Object-Biases(FIT),,4,female,82,0,german,0,0|0,1,5157|2826|1498|1306|1401,space,false,4,0|333.3333333333333,1,250,18.0287,79,112,mainKeyPress
15,380,52,JannisAndTill,5,true,Object-Biases(FIT),,4,female,82,0,german,3,333.3333333333333|333.3333333333333,1,5157|2826|1498|1306|1401,space,true,3,333.3333333333333|333.3333333333333,1,150,18.0287,79,113,mainKeyPress
15,393,52,JannisAndTill,5,true,Object-Biases(FIT),,4,female,82,0,german,3,333.3333333333333|333.3333333333333,1,5157|2826|1498|1306|1401,space,false,3,333.3333333333333|333.3333333333333,1,200,18.0287,79,114,mainKeyPress
15,326,52,JannisAndTill,5,true,Object-Biases(FIT),,4,female,82,0,german,4,0|333.3333333333333,1,5157|2826|1498|1306|1401,space,false,4,0|333.3333333333333,1,200,18.0287,79,115,mainKeyPress
15,378,52,JannisAndTill,5,true,Object-Biases(FIT),,4,female,82,0,german,1,333.3333333333333|0,1,5157|2826|1498|1306|1401,space,false,1,333.3333333333333|0,1,200,18.0287,79,116,mainKeyPress
15,,52,JannisAndTill,5,true,Object-Biases(FIT),,4,female,82,0,german,4,0|333.3333333333333,1,5157|2826|1498|1306|1401,wait,false,false,false|false,1,200,18.0287,79,117,mainKeyPress
15,339,52,JannisAndTill,5,true,Object-Biases(FIT),,4,female,82,0,german,0,0|0,1,5157|2826|1498|1306|1401,space,false,0,0|0,1,200,18.0287,79,118,mainKeyPress
15,360,52,JannisAndTill,5,true,Object-Biases(FIT),,4,female,82,0,german,4,0|333.3333333333333,1,5157|2826|1498|1306|1401,space,false,4,0|333.3333333333333,1,250,18.0287,79,119,mainKeyPress
15,340,52,JannisAndTill,5,true,Object-Biases(FIT),,4,female,82,0,german,0,0|0,1,5157|2826|1498|1306|1401,space,false,0,0|0,1,200,18.0287,79,120,mainKeyPress
15,,52,JannisAndTill,5,true,Object-Biases(FIT),,4,female,82,0,german,3,333.3333333333333|333.3333333333333,1,5157|2826|1498|1306|1401,wait,true,false,false|false,1,250,18.0287,79,121,mainKeyPress
15,368,52,JannisAndTill,5,true,Object-Biases(FIT),,4,female,82,0,german,3,333.3333333333333|333.3333333333333,1,5157|2826|1498|1306|1401,space,true,3,333.3333333333333|333.3333333333333,1,250,18.0287,79,122,mainKeyPress
15,349,52,JannisAndTill,5,true,Object-Biases(FIT),,4,female,82,0,german,4,0|333.3333333333333,1,5157|2826|1498|1306|1401,space,true,4,0|333.3333333333333,1,250,18.0287,79,123,mainKeyPress
15,352,52,JannisAndTill,5,true,Object-Biases(FIT),,4,female,82,0,german,3,333.3333333333333|333.3333333333333,1,5157|2826|1498|1306|1401,space,false,3,333.3333333333333|333.3333333333333,1,150,18.0287,79,124,mainKeyPress
15,,52,JannisAndTill,5,true,Object-Biases(FIT),,4,female,82,0,german,4,0|333.3333333333333,1,5157|2826|1498|1306|1401,wait,true,false,false|false,1,250,18.0287,79,125,mainKeyPress
15,427,52,JannisAndTill,6,true,Object-Biases(FIT),,4,female,82,0,german,3,333.3333333333333|333.3333333333333,1,5157|2826|1498|1306|1401,space,true,4,0|333.3333333333333,1,150,18.0287,79,126,mainKeyPress
15,422,52,JannisAndTill,6,true,Object-Biases(FIT),,4,female,82,0,german,1,333.3333333333333|0,1,5157|2826|1498|1306|1401,space,false,1,333.3333333333333|0,1,150,18.0287,79,127,mainKeyPress
15,375,52,JannisAndTill,6,true,Object-Biases(FIT),,4,female,82,0,german,3,333.3333333333333|333.3333333333333,1,5157|2826|1498|1306|1401,space,false,3,333.3333333333333|333.3333333333333,1,250,18.0287,79,128,mainKeyPress
15,395,52,JannisAndTill,6,true,Object-Biases(FIT),,4,female,82,0,german,3,333.3333333333333|333.3333333333333,1,5157|2826|1498|1306|1401,space,true,3,333.3333333333333|333.3333333333333,1,150,18.0287,79,129,mainKeyPress
15,,52,JannisAndTill,6,true,Object-Biases(FIT),,4,female,82,0,german,1,333.3333333333333|0,1,5157|2826|1498|1306|1401,wait,true,false,false|false,1,250,18.0287,79,130,mainKeyPress
15,368,52,JannisAndTill,6,true,Object-Biases(FIT),,4,female,82,0,german,4,0|333.3333333333333,1,5157|2826|1498|1306|1401,space,false,4,0|333.3333333333333,1,250,18.0287,79,131,mainKeyPress
15,389,52,JannisAndTill,6,true,Object-Biases(FIT),,4,female,82,0,german,0,0|0,1,5157|2826|1498|1306|1401,space,true,4,0|333.3333333333333,1,250,18.0287,79,132,mainKeyPress
15,394,52,JannisAndTill,6,true,Object-Biases(FIT),,4,female,82,0,german,0,0|0,1,5157|2826|1498|1306|1401,space,false,0,0|0,1,200,18.0287,79,133,mainKeyPress
15,,52,JannisAndTill,6,true,Object-Biases(FIT),,4,female,82,0,german,4,0|333.3333333333333,1,5157|2826|1498|1306|1401,wait,true,false,false|false,1,250,18.0287,79,134,mainKeyPress
15,343,52,JannisAndTill,6,true,Object-Biases(FIT),,4,female,82,0,german,1,333.3333333333333|0,1,5157|2826|1498|1306|1401,space,false,0,0|0,1,250,18.0287,79,135,mainKeyPress
15,386,52,JannisAndTill,6,true,Object-Biases(FIT),,4,female,82,0,german,1,333.3333333333333|0,1,5157|2826|1498|1306|1401,space,true,3,333.3333333333333|333.3333333333333,1,150,18.0287,79,136,mainKeyPress
15,361,52,JannisAndTill,6,true,Object-Biases(FIT),,4,female,82,0,german,1,333.3333333333333|0,1,5157|2826|1498|1306|1401,space,true,3,333.3333333333333|333.3333333333333,1,250,18.0287,79,137,mainKeyPress
15,359,52,JannisAndTill,6,true,Object-Biases(FIT),,4,female,82,0,german,1,333.3333333333333|0,1,5157|2826|1498|1306|1401,space,false,1,333.3333333333333|0,1,250,18.0287,79,138,mainKeyPress
15,380,52,JannisAndTill,6,true,Object-Biases(FIT),,4,female,82,0,german,1,333.3333333333333|0,1,5157|2826|1498|1306|1401,space,true,0,0|0,1,250,18.0287,79,139,mainKeyPress
15,391,52,JannisAndTill,6,true,Object-Biases(FIT),,4,female,82,0,german,1,333.3333333333333|0,1,5157|2826|1498|1306|1401,space,false,1,333.3333333333333|0,1,150,18.0287,79,140,mainKeyPress
15,350,52,JannisAndTill,6,true,Object-Biases(FIT),,4,female,82,0,german,1,333.3333333333333|0,1,5157|2826|1498|1306|1401,space,false,1,333.3333333333333|0,1,200,18.0287,79,141,mainKeyPress
15,432,52,JannisAndTill,6,true,Object-Biases(FIT),,4,female,82,0,german,0,0|0,1,5157|2826|1498|1306|1401,space,true,0,0|0,1,150,18.0287,79,142,mainKeyPress
15,438,52,JannisAndTill,6,true,Object-Biases(FIT),,4,female,82,0,german,1,333.3333333333333|0,1,5157|2826|1498|1306|1401,space,false,0,0|0,1,200,18.0287,79,143,mainKeyPress
15,,52,JannisAndTill,6,true,Object-Biases(FIT),,4,female,82,0,german,3,333.3333333333333|333.3333333333333,1,5157|2826|1498|1306|1401,wait,true,false,false|false,1,150,18.0287,79,144,mainKeyPress
15,385,52,JannisAndTill,6,true,Object-Biases(FIT),,4,female,82,0,german,1,333.3333333333333|0,1,5157|2826|1498|1306|1401,space,false,1,333.3333333333333|0,1,200,18.0287,79,145,mainKeyPress
15,389,52,JannisAndTill,6,true,Object-Biases(FIT),,4,female,82,0,german,4,0|333.3333333333333,1,5157|2826|1498|1306|1401,space,true,3,333.3333333333333|333.3333333333333,1,200,18.0287,79,146,mainKeyPress
15,393,52,JannisAndTill,6,true,Object-Biases(FIT),,4,female,82,0,german,0,0|0,1,5157|2826|1498|1306|1401,space,true,1,333.3333333333333|0,1,150,18.0287,79,147,mainKeyPress
15,335,52,JannisAndTill,6,true,Object-Biases(FIT),,4,female,82,0,german,0,0|0,1,5157|2826|1498|1306|1401,space,true,0,0|0,1,250,18.0287,79,148,mainKeyPress
15,,52,JannisAndTill,6,true,Object-Biases(FIT),,4,female,82,0,german,4,0|333.3333333333333,1,5157|2826|1498|1306|1401,wait,false,false,false|false,1,250,18.0287,79,149,mainKeyPress
15,,52,JannisAndTill,6,true,Object-Biases(FIT),,4,female,82,0,german,4,0|333.3333333333333,1,5157|2826|1498|1306|1401,wait,false,false,false|false,1,250,18.0287,79,150,mainKeyPress
16,74,55,JannisAndTill,practice,false,Object-Biases(FIT),graduated_high_school,4,male,49,0,german,0,0|0,1,3077|2403|2903|1830|1934,space,true,false,false|false,0,200,8.6789833333,31,1,practiceKeyPress
16,400,55,JannisAndTill,practice,true,Object-Biases(FIT),graduated_high_school,4,male,49,0,german,1,333.3333333333333|0,1,3077|2403|2903|1830|1934,space,false,1,333.3333333333333|0,0,250,8.6789833333,31,2,practiceKeyPress
16,432,55,JannisAndTill,practice,true,Object-Biases(FIT),graduated_high_school,4,male,49,0,german,3,333.3333333333333|333.3333333333333,1,3077|2403|2903|1830|1934,space,true,3,333.3333333333333|333.3333333333333,0,250,8.6789833333,31,3,practiceKeyPress
16,,55,JannisAndTill,practice,true,Object-Biases(FIT),graduated_high_school,4,male,49,0,german,1,333.3333333333333|0,1,3077|2403|2903|1830|1934,wait,true,false,false|false,0,150,8.6789833333,31,4,practiceKeyPress
16,338,55,JannisAndTill,practice,true,Object-Biases(FIT),graduated_high_school,4,male,49,0,german,0,0|0,1,3077|2403|2903|1830|1934,space,false,4,0|333.3333333333333,0,250,8.6789833333,31,5,practiceKeyPress
16,342,55,JannisAndTill,practice,true,Object-Biases(FIT),graduated_high_school,4,male,49,0,german,3,333.3333333333333|333.3333333333333,1,3077|2403|2903|1830|1934,space,true,3,333.3333333333333|333.3333333333333,0,200,8.6789833333,31,6,practiceKeyPress
16,346,55,JannisAndTill,practice,true,Object-Biases(FIT),graduated_high_school,4,male,49,0,german,4,0|333.3333333333333,1,3077|2403|2903|1830|1934,space,false,4,0|333.3333333333333,0,200,8.6789833333,31,7,practiceKeyPress
16,342,55,JannisAndTill,practice,true,Object-Biases(FIT),graduated_high_school,4,male,49,0,german,1,333.3333333333333|0,1,3077|2403|2903|1830|1934,space,false,1,333.3333333333333|0,0,200,8.6789833333,31,8,practiceKeyPress
16,403,55,JannisAndTill,practice,true,Object-Biases(FIT),graduated_high_school,4,male,49,0,german,3,333.3333333333333|333.3333333333333,1,3077|2403|2903|1830|1934,space,false,3,333.3333333333333|333.3333333333333,0,200,8.6789833333,31,9,practiceKeyPress
16,,55,JannisAndTill,practice,true,Object-Biases(FIT),graduated_high_school,4,male,49,0,german,4,0|333.3333333333333,1,3077|2403|2903|1830|1934,wait,true,false,false|false,0,150,8.6789833333,31,10,practiceKeyPress
16,349,55,JannisAndTill,practice,true,Object-Biases(FIT),graduated_high_school,4,male,49,0,german,4,0|333.3333333333333,1,3077|2403|2903|1830|1934,space,false,0,0|0,0,250,8.6789833333,31,11,practiceKeyPress
16,320,55,JannisAndTill,1,true,Object-Biases(FIT),graduated_high_school,4,male,49,0,german,4,0|333.3333333333333,1,3077|2403|2903|1830|1934,space,false,4,0|333.3333333333333,0,250,8.6789833333,31,1,mainKeyPress
16,,55,JannisAndTill,1,true,Object-Biases(FIT),graduated_high_school,4,male,49,0,german,3,333.3333333333333|333.3333333333333,1,3077|2403|2903|1830|1934,wait,true,false,false|false,0,200,8.6789833333,31,2,mainKeyPress
16,352,55,JannisAndTill,1,true,Object-Biases(FIT),graduated_high_school,4,male,49,0,german,1,333.3333333333333|0,1,3077|2403|2903|1830|1934,space,false,1,333.3333333333333|0,0,150,8.6789833333,31,3,mainKeyPress
16,,55,JannisAndTill,1,true,Object-Biases(FIT),graduated_high_school,4,male,49,0,german,1,333.3333333333333|0,1,3077|2403|2903|1830|1934,wait,false,false,false|false,0,200,8.6789833333,31,4,mainKeyPress
16,295,55,JannisAndTill,1,true,Object-Biases(FIT),graduated_high_school,4,male,49,0,german,1,333.3333333333333|0,1,3077|2403|2903|1830|1934,space,false,1,333.3333333333333|0,0,200,8.6789833333,31,5,mainKeyPress
16,372,55,JannisAndTill,1,true,Object-Biases(FIT),graduated_high_school,4,male,49,0,german,4,0|333.3333333333333,1,3077|2403|2903|1830|1934,space,true,0,0|0,0,250,8.6789833333,31,6,mainKeyPress
16,456,55,JannisAndTill,1,true,Object-Biases(FIT),graduated_high_school,4,male,49,0,german,3,333.3333333333333|333.3333333333333,1,3077|2403|2903|1830|1934,space,false,3,333.3333333333333|333.3333333333333,0,150,8.6789833333,31,7,mainKeyPress
16,,55,JannisAndTill,1,true,Object-Biases(FIT),graduated_high_school,4,male,49,0,german,4,0|333.3333333333333,1,3077|2403|2903|1830|1934,wait,false,false,false|false,0,150,8.6789833333,31,8,mainKeyPress
16,,55,JannisAndTill,1,true,Object-Biases(FIT),graduated_high_school,4,male,49,0,german,0,0|0,1,3077|2403|2903|1830|1934,wait,true,false,false|false,0,200,8.6789833333,31,9,mainKeyPress
16,327,55,JannisAndTill,1,true,Object-Biases(FIT),graduated_high_school,4,male,49,0,german,0,0|0,1,3077|2403|2903|1830|1934,space,false,0,0|0,0,200,8.6789833333,31,10,mainKeyPress
16,,55,JannisAndTill,1,true,Object-Biases(FIT),graduated_high_school,4,male,49,0,german,1,333.3333333333333|0,1,3077|2403|2903|1830|1934,wait,false,false,false|false,0,200,8.6789833333,31,11,mainKeyPress
16,304,55,JannisAndTill,1,true,Object-Biases(FIT),graduated_high_school,4,male,49,0,german,4,0|333.3333333333333,1,3077|2403|2903|1830|1934,space,false,4,0|333.3333333333333,0,250,8.6789833333,31,12,mainKeyPress
16,348,55,JannisAndTill,1,true,Object-Biases(FIT),graduated_high_school,4,male,49,0,german,1,333.3333333333333|0,1,3077|2403|2903|1830|1934,space,true,3,333.3333333333333|333.3333333333333,0,200,8.6789833333,31,13,mainKeyPress
16,399,55,JannisAndTill,1,true,Object-Biases(FIT),graduated_high_school,4,male,49,0,german,1,333.3333333333333|0,1,3077|2403|2903|1830|1934,space,true,0,0|0,0,200,8.6789833333,31,14,mainKeyPress
16,460,55,JannisAndTill,1,true,Object-Biases(FIT),graduated_high_school,4,male,49,0,german,1,333.3333333333333|0,1,3077|2403|2903|1830|1934,space,false,3,333.3333333333333|333.3333333333333,0,150,8.6789833333,31,15,mainKeyPress
16,377,55,JannisAndTill,1,true,Object-Biases(FIT),graduated_high_school,4,male,49,0,german,4,0|333.3333333333333,1,3077|2403|2903|1830|1934,space,true,3,333.3333333333333|333.3333333333333,0,150,8.6789833333,31,16,mainKeyPress
16,461,55,JannisAndTill,1,true,Object-Biases(FIT),graduated_high_school,4,male,49,0,german,4,0|333.3333333333333,1,3077|2403|2903|1830|1934,space,false,4,0|333.3333333333333,0,150,8.6789833333,31,17,mainKeyPress
16,325,55,JannisAndTill,1,true,Object-Biases(FIT),graduated_high_school,4,male,49,0,german,3,333.3333333333333|333.3333333333333,1,3077|2403|2903|1830|1934,space,false,3,333.3333333333333|333.3333333333333,0,250,8.6789833333,31,18,mainKeyPress
16,464,55,JannisAndTill,1,true,Object-Biases(FIT),graduated_high_school,4,male,49,0,german,1,333.3333333333333|0,1,3077|2403|2903|1830|1934,space,false,1,333.3333333333333|0,0,150,8.6789833333,31,19,mainKeyPress
16,424,55,JannisAndTill,1,true,Object-Biases(FIT),graduated_high_school,4,male,49,0,german,1,333.3333333333333|0,1,3077|2403|2903|1830|1934,space,true,0,0|0,0,250,8.6789833333,31,20,mainKeyPress
16,305,55,JannisAndTill,1,true,Object-Biases(FIT),graduated_high_school,4,male,49,0,german,0,0|0,1,3077|2403|2903|1830|1934,space,true,0,0|0,0,250,8.6789833333,31,21,mainKeyPress
16,418,55,JannisAndTill,1,true,Object-Biases(FIT),graduated_high_school,4,male,49,0,german,4,0|333.3333333333333,1,3077|2403|2903|1830|1934,space,false,4,0|333.3333333333333,0,200,8.6789833333,31,22,mainKeyPress
16,,55,JannisAndTill,1,true,Object-Biases(FIT),graduated_high_school,4,male,49,0,german,3,333.3333333333333|333.3333333333333,1,3077|2403|2903|1830|1934,wait,false,false,false|false,0,250,8.6789833333,31,23,mainKeyPress
16,381,55,JannisAndTill,1,true,Object-Biases(FIT),graduated_high_school,4,male,49,0,german,1,333.3333333333333|0,1,3077|2403|2903|1830|1934,space,true,1,333.3333333333333|0,0,150,8.6789833333,31,24,mainKeyPress
16,,55,JannisAndTill,1,true,Object-Biases(FIT),graduated_high_school,4,male,49,0,german,4,0|333.3333333333333,1,3077|2403|2903|1830|1934,wait,false,false,false|false,0,200,8.6789833333,31,25,mainKeyPress
16,312,55,JannisAndTill,2,true,Object-Biases(FIT),graduated_high_school,4,male,49,0,german,3,333.3333333333333|333.3333333333333,1,3077|2403|2903|1830|1934,space,false,3,333.3333333333333|333.3333333333333,0,250,8.6789833333,31,26,mainKeyPress
16,,55,JannisAndTill,2,true,Object-Biases(FIT),graduated_high_school,4,male,49,0,german,3,333.3333333333333|333.3333333333333,1,3077|2403|2903|1830|1934,wait,true,false,false|false,0,250,8.6789833333,31,27,mainKeyPress
16,408,55,JannisAndTill,2,true,Object-Biases(FIT),graduated_high_school,4,male,49,0,german,1,333.3333333333333|0,1,3077|2403|2903|1830|1934,space,true,1,333.3333333333333|0,0,150,8.6789833333,31,28,mainKeyPress
16,335,55,JannisAndTill,2,true,Object-Biases(FIT),graduated_high_school,4,male,49,0,german,1,333.3333333333333|0,1,3077|2403|2903|1830|1934,space,true,1,333.3333333333333|0,0,250,8.6789833333,31,29,mainKeyPress
16,458,55,JannisAndTill,2,true,Object-Biases(FIT),graduated_high_school,4,male,49,0,german,0,0|0,1,3077|2403|2903|1830|1934,space,false,0,0|0,0,150,8.6789833333,31,30,mainKeyPress
16,432,55,JannisAndTill,2,true,Object-Biases(FIT),graduated_high_school,4,male,49,0,german,0,0|0,1,3077|2403|2903|1830|1934,space,true,0,0|0,0,150,8.6789833333,31,31,mainKeyPress
16,,55,JannisAndTill,2,true,Object-Biases(FIT),graduated_high_school,4,male,49,0,german,3,333.3333333333333|333.3333333333333,1,3077|2403|2903|1830|1934,wait,false,false,false|false,0,250,8.6789833333,31,32,mainKeyPress
16,347,55,JannisAndTill,2,true,Object-Biases(FIT),graduated_high_school,4,male,49,0,german,1,333.3333333333333|0,1,3077|2403|2903|1830|1934,space,false,1,333.3333333333333|0,0,150,8.6789833333,31,33,mainKeyPress
16,486,55,JannisAndTill,2,true,Object-Biases(FIT),graduated_high_school,4,male,49,0,german,3,333.3333333333333|333.3333333333333,1,3077|2403|2903|1830|1934,space,true,3,333.3333333333333|333.3333333333333,0,150,8.6789833333,31,34,mainKeyPress
16,,55,JannisAndTill,2,true,Object-Biases(FIT),graduated_high_school,4,male,49,0,german,3,333.3333333333333|333.3333333333333,1,3077|2403|2903|1830|1934,wait,false,false,false|false,0,200,8.6789833333,31,35,mainKeyPress
16,,55,JannisAndTill,2,true,Object-Biases(FIT),graduated_high_school,4,male,49,0,german,0,0|0,1,3077|2403|2903|1830|1934,wait,true,false,false|false,0,200,8.6789833333,31,36,mainKeyPress
16,,55,JannisAndTill,2,true,Object-Biases(FIT),graduated_high_school,4,male,49,0,german,0,0|0,1,3077|2403|2903|1830|1934,wait,true,false,false|false,0,150,8.6789833333,31,37,mainKeyPress
16,321,55,JannisAndTill,2,true,Object-Biases(FIT),graduated_high_school,4,male,49,0,german,0,0|0,1,3077|2403|2903|1830|1934,space,true,0,0|0,0,250,8.6789833333,31,38,mainKeyPress
16,575,55,JannisAndTill,2,true,Object-Biases(FIT),graduated_high_school,4,male,49,0,german,4,0|333.3333333333333,1,3077|2403|2903|1830|1934,space,true,3,333.3333333333333|333.3333333333333,0,250,8.6789833333,31,39,mainKeyPress
16,377,55,JannisAndTill,2,true,Object-Biases(FIT),graduated_high_school,4,male,49,0,german,1,333.3333333333333|0,1,3077|2403|2903|1830|1934,space,false,3,333.3333333333333|333.3333333333333,0,250,8.6789833333,31,40,mainKeyPress
16,429,55,JannisAndTill,2,true,Object-Biases(FIT),graduated_high_school,4,male,49,0,german,4,0|333.3333333333333,1,3077|2403|2903|1830|1934,space,false,0,0|0,0,150,8.6789833333,31,41,mainKeyPress
16,,55,JannisAndTill,2,true,Object-Biases(FIT),graduated_high_school,4,male,49,0,german,0,0|0,1,3077|2403|2903|1830|1934,wait,true,false,false|false,0,150,8.6789833333,31,42,mainKeyPress
16,413,55,JannisAndTill,2,true,Object-Biases(FIT),graduated_high_school,4,male,49,0,german,3,333.3333333333333|333.3333333333333,1,3077|2403|2903|1830|1934,space,false,4,0|333.3333333333333,0,150,8.6789833333,31,43,mainKeyPress
16,356,55,JannisAndTill,2,true,Object-Biases(FIT),graduated_high_school,4,male,49,0,german,1,333.3333333333333|0,1,3077|2403|2903|1830|1934,space,true,0,0|0,0,250,8.6789833333,31,44,mainKeyPress
16,,55,JannisAndTill,2,true,Object-Biases(FIT),graduated_high_school,4,male,49,0,german,4,0|333.3333333333333,1,3077|2403|2903|1830|1934,wait,false,false,false|false,0,250,8.6789833333,31,45,mainKeyPress
16,373,55,JannisAndTill,2,true,Object-Biases(FIT),graduated_high_school,4,male,49,0,german,1,333.3333333333333|0,1,3077|2403|2903|1830|1934,space,true,0,0|0,0,200,8.6789833333,31,46,mainKeyPress
16,,55,JannisAndTill,2,true,Object-Biases(FIT),graduated_high_school,4,male,49,0,german,0,0|0,1,3077|2403|2903|1830|1934,wait,false,false,false|false,0,250,8.6789833333,31,47,mainKeyPress
16,,55,JannisAndTill,2,true,Object-Biases(FIT),graduated_high_school,4,male,49,0,german,0,0|0,1,3077|2403|2903|1830|1934,wait,true,false,false|false,0,250,8.6789833333,31,48,mainKeyPress
16,415,55,JannisAndTill,2,true,Object-Biases(FIT),graduated_high_school,4,male,49,0,german,0,0|0,1,3077|2403|2903|1830|1934,space,false,0,0|0,0,200,8.6789833333,31,49,mainKeyPress
16,555,55,JannisAndTill,2,true,Object-Biases(FIT),graduated_high_school,4,male,49,0,german,4,0|333.3333333333333,1,3077|2403|2903|1830|1934,space,true,4,0|333.3333333333333,0,150,8.6789833333,31,50,mainKeyPress
16,438,55,JannisAndTill,3,true,Object-Biases(FIT),graduated_high_school,4,male,49,0,german,0,0|0,1,3077|2403|2903|1830|1934,space,true,0,0|0,0,250,8.6789833333,31,51,mainKeyPress
16,406,55,JannisAndTill,3,true,Object-Biases(FIT),graduated_high_school,4,male,49,0,german,0,0|0,1,3077|2403|2903|1830|1934,space,true,1,333.3333333333333|0,0,250,8.6789833333,31,52,mainKeyPress
16,,55,JannisAndTill,3,true,Object-Biases(FIT),graduated_high_school,4,male,49,0,german,4,0|333.3333333333333,1,3077|2403|2903|1830|1934,wait,true,false,false|false,0,200,8.6789833333,31,53,mainKeyPress
16,344,55,JannisAndTill,3,true,Object-Biases(FIT),graduated_high_school,4,male,49,0,german,1,333.3333333333333|0,1,3077|2403|2903|1830|1934,space,false,1,333.3333333333333|0,0,150,8.6789833333,31,54,mainKeyPress
16,326,55,JannisAndTill,3,true,Object-Biases(FIT),graduated_high_school,4,male,49,0,german,1,333.3333333333333|0,1,3077|2403|2903|1830|1934,space,false,0,0|0,0,250,8.6789833333,31,55,mainKeyPress
16,,55,JannisAndTill,3,true,Object-Biases(FIT),graduated_high_school,4,male,49,0,german,0,0|0,1,3077|2403|2903|1830|1934,wait,true,false,false|false,0,200,8.6789833333,31,56,mainKeyPress
16,,55,JannisAndTill,3,true,Object-Biases(FIT),graduated_high_school,4,male,49,0,german,3,333.3333333333333|333.3333333333333,1,3077|2403|2903|1830|1934,wait,false,false,false|false,0,150,8.6789833333,31,57,mainKeyPress
16,357,55,JannisAndTill,3,true,Object-Biases(FIT),graduated_high_school,4,male,49,0,german,4,0|333.3333333333333,1,3077|2403|2903|1830|1934,space,true,4,0|333.3333333333333,0,150,8.6789833333,31,58,mainKeyPress
16,400,55,JannisAndTill,3,true,Object-Biases(FIT),graduated_high_school,4,male,49,0,german,0,0|0,1,3077|2403|2903|1830|1934,space,true,4,0|333.3333333333333,0,150,8.6789833333,31,59,mainKeyPress
16,361,55,JannisAndTill,3,true,Object-Biases(FIT),graduated_high_school,4,male,49,0,german,3,333.3333333333333|333.3333333333333,1,3077|2403|2903|1830|1934,space,true,1,333.3333333333333|0,0,250,8.6789833333,31,60,mainKeyPress
16,403,55,JannisAndTill,3,true,Object-Biases(FIT),graduated_high_school,4,male,49,0,german,1,333.3333333333333|0,1,3077|2403|2903|1830|1934,space,true,3,333.3333333333333|333.3333333333333,0,150,8.6789833333,31,61,mainKeyPress
16,,55,JannisAndTill,3,true,Object-Biases(FIT),graduated_high_school,4,male,49,0,german,1,333.3333333333333|0,1,3077|2403|2903|1830|1934,wait,true,false,false|false,0,150,8.6789833333,31,62,mainKeyPress
16,,55,JannisAndTill,3,true,Object-Biases(FIT),graduated_high_school,4,male,49,0,german,3,333.3333333333333|333.3333333333333,1,3077|2403|2903|1830|1934,wait,false,false,false|false,0,200,8.6789833333,31,63,mainKeyPress
16,342,55,JannisAndTill,3,true,Object-Biases(FIT),graduated_high_school,4,male,49,0,german,3,333.3333333333333|333.3333333333333,1,3077|2403|2903|1830|1934,space,true,3,333.3333333333333|333.3333333333333,0,150,8.6789833333,31,64,mainKeyPress
16,,55,JannisAndTill,3,true,Object-Biases(FIT),graduated_high_school,4,male,49,0,german,3,333.3333333333333|333.3333333333333,1,3077|2403|2903|1830|1934,wait,true,false,false|false,0,150,8.6789833333,31,65,mainKeyPress
16,,55,JannisAndTill,3,true,Object-Biases(FIT),graduated_high_school,4,male,49,0,german,1,333.3333333333333|0,1,3077|2403|2903|1830|1934,wait,true,false,false|false,0,200,8.6789833333,31,66,mainKeyPress
16,337,55,JannisAndTill,3,true,Object-Biases(FIT),graduated_high_school,4,male,49,0,german,0,0|0,1,3077|2403|2903|1830|1934,space,true,0,0|0,0,200,8.6789833333,31,67,mainKeyPress
16,484,55,JannisAndTill,3,true,Object-Biases(FIT),graduated_high_school,4,male,49,0,german,3,333.3333333333333|333.3333333333333,1,3077|2403|2903|1830|1934,space,true,3,333.3333333333333|333.3333333333333,0,150,8.6789833333,31,68,mainKeyPress
16,545,55,JannisAndTill,3,true,Object-Biases(FIT),graduated_high_school,4,male,49,0,german,1,333.3333333333333|0,1,3077|2403|2903|1830|1934,space,true,1,333.3333333333333|0,0,150,8.6789833333,31,69,mainKeyPress
16,513,55,JannisAndTill,3,true,Object-Biases(FIT),graduated_high_school,4,male,49,0,german,1,333.3333333333333|0,1,3077|2403|2903|1830|1934,space,true,3,333.3333333333333|333.3333333333333,0,150,8.6789833333,31,70,mainKeyPress
16,439,55,JannisAndTill,3,true,Object-Biases(FIT),graduated_high_school,4,male,49,0,german,4,0|333.3333333333333,1,3077|2403|2903|1830|1934,space,true,4,0|333.3333333333333,0,150,8.6789833333,31,71,mainKeyPress
16,352,55,JannisAndTill,3,true,Object-Biases(FIT),graduated_high_school,4,male,49,0,german,3,333.3333333333333|333.3333333333333,1,3077|2403|2903|1830|1934,space,false,3,333.3333333333333|333.3333333333333,0,250,8.6789833333,31,72,mainKeyPress
16,,55,JannisAndTill,3,true,Object-Biases(FIT),graduated_high_school,4,male,49,0,german,1,333.3333333333333|0,1,3077|2403|2903|1830|1934,wait,true,false,false|false,0,200,8.6789833333,31,73,mainKeyPress
16,,55,JannisAndTill,3,true,Object-Biases(FIT),graduated_high_school,4,male,49,0,german,1,333.3333333333333|0,1,3077|2403|2903|1830|1934,wait,true,false,false|false,0,150,8.6789833333,31,74,mainKeyPress
16,364,55,JannisAndTill,3,true,Object-Biases(FIT),graduated_high_school,4,male,49,0,german,4,0|333.3333333333333,1,3077|2403|2903|1830|1934,space,true,4,0|333.3333333333333,0,200,8.6789833333,31,75,mainKeyPress
16,,55,JannisAndTill,4,true,Object-Biases(FIT),graduated_high_school,4,male,49,0,german,3,333.3333333333333|333.3333333333333,1,3077|2403|2903|1830|1934,wait,false,false,false|false,0,250,8.6789833333,31,76,mainKeyPress
16,360,55,JannisAndTill,4,true,Object-Biases(FIT),graduated_high_school,4,male,49,0,german,0,0|0,1,3077|2403|2903|1830|1934,space,false,0,0|0,0,150,8.6789833333,31,77,mainKeyPress
16,431,55,JannisAndTill,4,true,Object-Biases(FIT),graduated_high_school,4,male,49,0,german,1,333.3333333333333|0,1,3077|2403|2903|1830|1934,space,false,3,333.3333333333333|333.3333333333333,0,250,8.6789833333,31,78,mainKeyPress
16,391,55,JannisAndTill,4,true,Object-Biases(FIT),graduated_high_school,4,male,49,0,german,3,333.3333333333333|333.3333333333333,1,3077|2403|2903|1830|1934,space,true,3,333.3333333333333|333.3333333333333,0,250,8.6789833333,31,79,mainKeyPress
16,467,55,JannisAndTill,4,true,Object-Biases(FIT),graduated_high_school,4,male,49,0,german,3,333.3333333333333|333.3333333333333,1,3077|2403|2903|1830|1934,space,true,3,333.3333333333333|333.3333333333333,0,150,8.6789833333,31,80,mainKeyPress
16,369,55,JannisAndTill,4,true,Object-Biases(FIT),graduated_high_school,4,male,49,0,german,0,0|0,1,3077|2403|2903|1830|1934,space,true,1,333.3333333333333|0,0,200,8.6789833333,31,81,mainKeyPress
16,341,55,JannisAndTill,4,true,Object-Biases(FIT),graduated_high_school,4,male,49,0,german,0,0|0,1,3077|2403|2903|1830|1934,space,true,0,0|0,0,150,8.6789833333,31,82,mainKeyPress
16,489,55,JannisAndTill,4,true,Object-Biases(FIT),graduated_high_school,4,male,49,0,german,4,0|333.3333333333333,1,3077|2403|2903|1830|1934,space,false,3,333.3333333333333|333.3333333333333,0,250,8.6789833333,31,83,mainKeyPress
16,,55,JannisAndTill,4,true,Object-Biases(FIT),graduated_high_school,4,male,49,0,german,4,0|333.3333333333333,1,3077|2403|2903|1830|1934,wait,false,false,false|false,0,200,8.6789833333,31,84,mainKeyPress
16,436,55,JannisAndTill,4,true,Object-Biases(FIT),graduated_high_school,4,male,49,0,german,0,0|0,1,3077|2403|2903|1830|1934,space,true,4,0|333.3333333333333,0,150,8.6789833333,31,85,mainKeyPress
16,394,55,JannisAndTill,4,true,Object-Biases(FIT),graduated_high_school,4,male,49,0,german,3,333.3333333333333|333.3333333333333,1,3077|2403|2903|1830|1934,space,false,3,333.3333333333333|333.3333333333333,0,250,8.6789833333,31,86,mainKeyPress
16,347,55,JannisAndTill,4,true,Object-Biases(FIT),graduated_high_school,4,male,49,0,german,3,333.3333333333333|333.3333333333333,1,3077|2403|2903|1830|1934,space,false,3,333.3333333333333|333.3333333333333,0,250,8.6789833333,31,87,mainKeyPress
16,455,55,JannisAndTill,4,true,Object-Biases(FIT),graduated_high_school,4,male,49,0,german,4,0|333.3333333333333,1,3077|2403|2903|1830|1934,space,false,4,0|333.3333333333333,0,150,8.6789833333,31,88,mainKeyPress
16,508,55,JannisAndTill,4,true,Object-Biases(FIT),graduated_high_school,4,male,49,0,german,1,333.3333333333333|0,1,3077|2403|2903|1830|1934,space,true,3,333.3333333333333|333.3333333333333,0,150,8.6789833333,31,89,mainKeyPress
16,388,55,JannisAndTill,4,true,Object-Biases(FIT),graduated_high_school,4,male,49,0,german,0,0|0,1,3077|2403|2903|1830|1934,space,false,4,0|333.3333333333333,0,200,8.6789833333,31,90,mainKeyPress
16,473,55,JannisAndTill,4,true,Object-Biases(FIT),graduated_high_school,4,male,49,0,german,4,0|333.3333333333333,1,3077|2403|2903|1830|1934,space,false,3,333.3333333333333|333.3333333333333,0,150,8.6789833333,31,91,mainKeyPress
16,,55,JannisAndTill,4,true,Object-Biases(FIT),graduated_high_school,4,male,49,0,german,1,333.3333333333333|0,1,3077|2403|2903|1830|1934,wait,false,false,false|false,0,250,8.6789833333,31,92,mainKeyPress
16,429,55,JannisAndTill,4,true,Object-Biases(FIT),graduated_high_school,4,male,49,0,german,4,0|333.3333333333333,1,3077|2403|2903|1830|1934,space,true,4,0|333.3333333333333,0,200,8.6789833333,31,93,mainKeyPress
16,370,55,JannisAndTill,4,true,Object-Biases(FIT),graduated_high_school,4,male,49,0,german,1,333.3333333333333|0,1,3077|2403|2903|1830|1934,space,false,1,333.3333333333333|0,0,150,8.6789833333,31,94,mainKeyPress
16,319,55,JannisAndTill,4,true,Object-Biases(FIT),graduated_high_school,4,male,49,0,german,4,0|333.3333333333333,1,3077|2403|2903|1830|1934,space,true,4,0|333.3333333333333,0,200,8.6789833333,31,95,mainKeyPress
16,445,55,JannisAndTill,4,true,Object-Biases(FIT),graduated_high_school,4,male,49,0,german,1,333.3333333333333|0,1,3077|2403|2903|1830|1934,space,false,1,333.3333333333333|0,0,250,8.6789833333,31,96,mainKeyPress
16,338,55,JannisAndTill,4,true,Object-Biases(FIT),graduated_high_school,4,male,49,0,german,4,0|333.3333333333333,1,3077|2403|2903|1830|1934,space,true,0,0|0,0,200,8.6789833333,31,97,mainKeyPress
16,439,55,JannisAndTill,4,true,Object-Biases(FIT),graduated_high_school,4,male,49,0,german,3,333.3333333333333|333.3333333333333,1,3077|2403|2903|1830|1934,space,true,3,333.3333333333333|333.3333333333333,0,250,8.6789833333,31,98,mainKeyPress
16,,55,JannisAndTill,4,true,Object-Biases(FIT),graduated_high_school,4,male,49,0,german,4,0|333.3333333333333,1,3077|2403|2903|1830|1934,wait,true,false,false|false,0,200,8.6789833333,31,99,mainKeyPress
16,418,55,JannisAndTill,4,true,Object-Biases(FIT),graduated_high_school,4,male,49,0,german,1,333.3333333333333|0,1,3077|2403|2903|1830|1934,space,false,1,333.3333333333333|0,0,150,8.6789833333,31,100,mainKeyPress
16,,55,JannisAndTill,5,true,Object-Biases(FIT),graduated_high_school,4,male,49,0,german,3,333.3333333333333|333.3333333333333,1,3077|2403|2903|1830|1934,wait,true,false,false|false,0,200,8.6789833333,31,101,mainKeyPress
16,398,55,JannisAndTill,5,true,Object-Biases(FIT),graduated_high_school,4,male,49,0,german,1,333.3333333333333|0,1,3077|2403|2903|1830|1934,space,false,1,333.3333333333333|0,0,250,8.6789833333,31,102,mainKeyPress
16,372,55,JannisAndTill,5,true,Object-Biases(FIT),graduated_high_school,4,male,49,0,german,0,0|0,1,3077|2403|2903|1830|1934,space,true,4,0|333.3333333333333,0,200,8.6789833333,31,103,mainKeyPress
16,328,55,JannisAndTill,5,true,Object-Biases(FIT),graduated_high_school,4,male,49,0,german,1,333.3333333333333|0,1,3077|2403|2903|1830|1934,space,true,1,333.3333333333333|0,0,150,8.6789833333,31,104,mainKeyPress
16,293,55,JannisAndTill,5,true,Object-Biases(FIT),graduated_high_school,4,male,49,0,german,1,333.3333333333333|0,1,3077|2403|2903|1830|1934,space,true,3,333.3333333333333|333.3333333333333,0,250,8.6789833333,31,105,mainKeyPress
16,297,55,JannisAndTill,5,true,Object-Biases(FIT),graduated_high_school,4,male,49,0,german,4,0|333.3333333333333,1,3077|2403|2903|1830|1934,space,false,4,0|333.3333333333333,0,250,8.6789833333,31,106,mainKeyPress
16,271,55,JannisAndTill,5,true,Object-Biases(FIT),graduated_high_school,4,male,49,0,german,3,333.3333333333333|333.3333333333333,1,3077|2403|2903|1830|1934,space,true,3,333.3333333333333|333.3333333333333,0,250,8.6789833333,31,107,mainKeyPress
16,330,55,JannisAndTill,5,true,Object-Biases(FIT),graduated_high_school,4,male,49,0,german,4,0|333.3333333333333,1,3077|2403|2903|1830|1934,space,true,4,0|333.3333333333333,0,250,8.6789833333,31,108,mainKeyPress
16,273,55,JannisAndTill,5,true,Object-Biases(FIT),graduated_high_school,4,male,49,0,german,1,333.3333333333333|0,1,3077|2403|2903|1830|1934,space,false,1,333.3333333333333|0,0,250,8.6789833333,31,109,mainKeyPress
16,313,55,JannisAndTill,5,true,Object-Biases(FIT),graduated_high_school,4,male,49,0,german,3,333.3333333333333|333.3333333333333,1,3077|2403|2903|1830|1934,space,false,3,333.3333333333333|333.3333333333333,0,200,8.6789833333,31,110,mainKeyPress
16,478,55,JannisAndTill,5,true,Object-Biases(FIT),graduated_high_school,4,male,49,0,german,0,0|0,1,3077|2403|2903|1830|1934,space,true,1,333.3333333333333|0,0,200,8.6789833333,31,111,mainKeyPress
16,451,55,JannisAndTill,5,true,Object-Biases(FIT),graduated_high_school,4,male,49,0,german,0,0|0,1,3077|2403|2903|1830|1934,space,true,4,0|333.3333333333333,0,150,8.6789833333,31,112,mainKeyPress
16,,55,JannisAndTill,5,true,Object-Biases(FIT),graduated_high_school,4,male,49,0,german,4,0|333.3333333333333,1,3077|2403|2903|1830|1934,wait,false,false,false|false,0,250,8.6789833333,31,113,mainKeyPress
16,354,55,JannisAndTill,5,true,Object-Biases(FIT),graduated_high_school,4,male,49,0,german,1,333.3333333333333|0,1,3077|2403|2903|1830|1934,space,false,1,333.3333333333333|0,0,250,8.6789833333,31,114,mainKeyPress
16,299,55,JannisAndTill,5,true,Object-Biases(FIT),graduated_high_school,4,male,49,0,german,4,0|333.3333333333333,1,3077|2403|2903|1830|1934,space,true,4,0|333.3333333333333,0,150,8.6789833333,31,115,mainKeyPress
16,,55,JannisAndTill,5,true,Object-Biases(FIT),graduated_high_school,4,male,49,0,german,3,333.3333333333333|333.3333333333333,1,3077|2403|2903|1830|1934,wait,true,false,false|false,0,250,8.6789833333,31,116,mainKeyPress
16,334,55,JannisAndTill,5,true,Object-Biases(FIT),graduated_high_school,4,male,49,0,german,0,0|0,1,3077|2403|2903|1830|1934,space,true,4,0|333.3333333333333,0,200,8.6789833333,31,117,mainKeyPress
16,290,55,JannisAndTill,5,true,Object-Biases(FIT),graduated_high_school,4,male,49,0,german,1,333.3333333333333|0,1,3077|2403|2903|1830|1934,space,true,1,333.3333333333333|0,0,250,8.6789833333,31,118,mainKeyPress
16,357,55,JannisAndTill,5,true,Object-Biases(FIT),graduated_high_school,4,male,49,0,german,0,0|0,1,3077|2403|2903|1830|1934,space,false,0,0|0,0,150,8.6789833333,31,119,mainKeyPress
16,408,55,JannisAndTill,5,true,Object-Biases(FIT),graduated_high_school,4,male,49,0,german,4,0|333.3333333333333,1,3077|2403|2903|1830|1934,space,false,4,0|333.3333333333333,0,150,8.6789833333,31,120,mainKeyPress
16,294,55,JannisAndTill,5,true,Object-Biases(FIT),graduated_high_school,4,male,49,0,german,3,333.3333333333333|333.3333333333333,1,3077|2403|2903|1830|1934,space,true,1,333.3333333333333|0,0,250,8.6789833333,31,121,mainKeyPress
16,449,55,JannisAndTill,5,true,Object-Biases(FIT),graduated_high_school,4,male,49,0,german,1,333.3333333333333|0,1,3077|2403|2903|1830|1934,space,false,3,333.3333333333333|333.3333333333333,0,150,8.6789833333,31,122,mainKeyPress
16,328,55,JannisAndTill,5,true,Object-Biases(FIT),graduated_high_school,4,male,49,0,german,4,0|333.3333333333333,1,3077|2403|2903|1830|1934,space,true,0,0|0,0,200,8.6789833333,31,123,mainKeyPress
16,,55,JannisAndTill,5,true,Object-Biases(FIT),graduated_high_school,4,male,49,0,german,1,333.3333333333333|0,1,3077|2403|2903|1830|1934,wait,false,false,false|false,0,250,8.6789833333,31,124,mainKeyPress
16,,55,JannisAndTill,5,true,Object-Biases(FIT),graduated_high_school,4,male,49,0,german,1,333.3333333333333|0,1,3077|2403|2903|1830|1934,wait,true,false,false|false,0,250,8.6789833333,31,125,mainKeyPress
16,386,55,JannisAndTill,6,true,Object-Biases(FIT),graduated_high_school,4,male,49,0,german,1,333.3333333333333|0,1,3077|2403|2903|1830|1934,space,false,1,333.3333333333333|0,0,150,8.6789833333,31,126,mainKeyPress
16,,55,JannisAndTill,6,true,Object-Biases(FIT),graduated_high_school,4,male,49,0,german,4,0|333.3333333333333,1,3077|2403|2903|1830|1934,wait,true,false,false|false,0,150,8.6789833333,31,127,mainKeyPress
16,365,55,JannisAndTill,6,true,Object-Biases(FIT),graduated_high_school,4,male,49,0,german,4,0|333.3333333333333,1,3077|2403|2903|1830|1934,space,true,4,0|333.3333333333333,0,250,8.6789833333,31,128,mainKeyPress
16,338,55,JannisAndTill,6,true,Object-Biases(FIT),graduated_high_school,4,male,49,0,german,1,333.3333333333333|0,1,3077|2403|2903|1830|1934,space,false,0,0|0,0,200,8.6789833333,31,129,mainKeyPress
16,355,55,JannisAndTill,6,true,Object-Biases(FIT),graduated_high_school,4,male,49,0,german,4,0|333.3333333333333,1,3077|2403|2903|1830|1934,space,false,4,0|333.3333333333333,0,150,8.6789833333,31,130,mainKeyPress
16,439,55,JannisAndTill,6,true,Object-Biases(FIT),graduated_high_school,4,male,49,0,german,4,0|333.3333333333333,1,3077|2403|2903|1830|1934,space,true,3,333.3333333333333|333.3333333333333,0,150,8.6789833333,31,131,mainKeyPress
16,363,55,JannisAndTill,6,true,Object-Biases(FIT),graduated_high_school,4,male,49,0,german,1,333.3333333333333|0,1,3077|2403|2903|1830|1934,space,false,1,333.3333333333333|0,0,150,8.6789833333,31,132,mainKeyPress
16,337,55,JannisAndTill,6,true,Object-Biases(FIT),graduated_high_school,4,male,49,0,german,4,0|333.3333333333333,1,3077|2403|2903|1830|1934,space,true,4,0|333.3333333333333,0,200,8.6789833333,31,133,mainKeyPress
16,,55,JannisAndTill,6,true,Object-Biases(FIT),graduated_high_school,4,male,49,0,german,3,333.3333333333333|333.3333333333333,1,3077|2403|2903|1830|1934,wait,true,false,false|false,0,150,8.6789833333,31,134,mainKeyPress
16,,55,JannisAndTill,6,true,Object-Biases(FIT),graduated_high_school,4,male,49,0,german,1,333.3333333333333|0,1,3077|2403|2903|1830|1934,wait,true,false,false|false,0,150,8.6789833333,31,135,mainKeyPress
16,387,55,JannisAndTill,6,true,Object-Biases(FIT),graduated_high_school,4,male,49,0,german,4,0|333.3333333333333,1,3077|2403|2903|1830|1934,space,false,4,0|333.3333333333333,0,200,8.6789833333,31,136,mainKeyPress
16,,55,JannisAndTill,6,true,Object-Biases(FIT),graduated_high_school,4,male,49,0,german,3,333.3333333333333|333.3333333333333,1,3077|2403|2903|1830|1934,wait,false,false,false|false,0,250,8.6789833333,31,137,mainKeyPress
16,309,55,JannisAndTill,6,true,Object-Biases(FIT),graduated_high_school,4,male,49,0,german,0,0|0,1,3077|2403|2903|1830|1934,space,true,0,0|0,0,200,8.6789833333,31,138,mainKeyPress
16,392,55,JannisAndTill,6,true,Object-Biases(FIT),graduated_high_school,4,male,49,0,german,0,0|0,1,3077|2403|2903|1830|1934,space,true,4,0|333.3333333333333,0,200,8.6789833333,31,139,mainKeyPress
16,302,55,JannisAndTill,6,true,Object-Biases(FIT),graduated_high_school,4,male,49,0,german,3,333.3333333333333|333.3333333333333,1,3077|2403|2903|1830|1934,space,true,3,333.3333333333333|333.3333333333333,0,200,8.6789833333,31,140,mainKeyPress
16,392,55,JannisAndTill,6,true,Object-Biases(FIT),graduated_high_school,4,male,49,0,german,1,333.3333333333333|0,1,3077|2403|2903|1830|1934,space,false,1,333.3333333333333|0,0,200,8.6789833333,31,141,mainKeyPress
16,286,55,JannisAndTill,6,true,Object-Biases(FIT),graduated_high_school,4,male,49,0,german,0,0|0,1,3077|2403|2903|1830|1934,space,true,0,0|0,0,250,8.6789833333,31,142,mainKeyPress
16,323,55,JannisAndTill,6,true,Object-Biases(FIT),graduated_high_school,4,male,49,0,german,4,0|333.3333333333333,1,3077|2403|2903|1830|1934,space,true,4,0|333.3333333333333,0,250,8.6789833333,31,143,mainKeyPress
16,,55,JannisAndTill,6,true,Object-Biases(FIT),graduated_high_school,4,male,49,0,german,0,0|0,1,3077|2403|2903|1830|1934,wait,true,false,false|false,0,150,8.6789833333,31,144,mainKeyPress
16,,55,JannisAndTill,6,true,Object-Biases(FIT),graduated_high_school,4,male,49,0,german,4,0|333.3333333333333,1,3077|2403|2903|1830|1934,wait,false,false,false|false,0,150,8.6789833333,31,145,mainKeyPress
16,287,55,JannisAndTill,6,true,Object-Biases(FIT),graduated_high_school,4,male,49,0,german,0,0|0,1,3077|2403|2903|1830|1934,space,true,0,0|0,0,250,8.6789833333,31,146,mainKeyPress
16,402,55,JannisAndTill,6,true,Object-Biases(FIT),graduated_high_school,4,male,49,0,german,3,333.3333333333333|333.3333333333333,1,3077|2403|2903|1830|1934,space,true,4,0|333.3333333333333,0,200,8.6789833333,31,147,mainKeyPress
16,319,55,JannisAndTill,6,true,Object-Biases(FIT),graduated_high_school,4,male,49,0,german,4,0|333.3333333333333,1,3077|2403|2903|1830|1934,space,false,4,0|333.3333333333333,0,200,8.6789833333,31,148,mainKeyPress
16,323,55,JannisAndTill,6,true,Object-Biases(FIT),graduated_high_school,4,male,49,0,german,1,333.3333333333333|0,1,3077|2403|2903|1830|1934,space,false,3,333.3333333333333|333.3333333333333,0,200,8.6789833333,31,149,mainKeyPress
16,,55,JannisAndTill,6,true,Object-Biases(FIT),graduated_high_school,4,male,49,0,german,1,333.3333333333333|0,1,3077|2403|2903|1830|1934,wait,true,false,false|false,0,200,8.6789833333,31,150,mainKeyPress
17,103,24,JannisAndTill,practice,true,Object-Biases(FIT),graduated_college,4,male,27,23,Spanish,4,0|333.3333333333333,3,8751|2477|2282|2302|2190,space,false,4,0|333.3333333333333,3,250,16.3117333333,32,1,practiceKeyPress
17,117,24,JannisAndTill,practice,false,Object-Biases(FIT),graduated_college,4,male,27,23,Spanish,1,333.3333333333333|0,3,8751|2477|2282|2302|2190,space,true,false,false|false,3,150,16.3117333333,32,2,practiceKeyPress
17,352,24,JannisAndTill,practice,true,Object-Biases(FIT),graduated_college,4,male,27,23,Spanish,1,333.3333333333333|0,3,8751|2477|2282|2302|2190,space,true,1,333.3333333333333|0,3,150,16.3117333333,32,3,practiceKeyPress
17,,24,JannisAndTill,practice,true,Object-Biases(FIT),graduated_college,4,male,27,23,Spanish,3,333.3333333333333|333.3333333333333,3,8751|2477|2282|2302|2190,wait,true,false,false|false,3,200,16.3117333333,32,4,practiceKeyPress
17,345,24,JannisAndTill,practice,true,Object-Biases(FIT),graduated_college,4,male,27,23,Spanish,3,333.3333333333333|333.3333333333333,3,8751|2477|2282|2302|2190,space,true,3,333.3333333333333|333.3333333333333,3,150,16.3117333333,32,5,practiceKeyPress
17,,24,JannisAndTill,practice,true,Object-Biases(FIT),graduated_college,4,male,27,23,Spanish,3,333.3333333333333|333.3333333333333,3,8751|2477|2282|2302|2190,wait,true,false,false|false,3,200,16.3117333333,32,6,practiceKeyPress
17,333,24,JannisAndTill,practice,true,Object-Biases(FIT),graduated_college,4,male,27,23,Spanish,1,333.3333333333333|0,3,8751|2477|2282|2302|2190,space,true,1,333.3333333333333|0,3,250,16.3117333333,32,7,practiceKeyPress
17,457,24,JannisAndTill,practice,true,Object-Biases(FIT),graduated_college,4,male,27,23,Spanish,1,333.3333333333333|0,3,8751|2477|2282|2302|2190,space,false,0,0|0,3,150,16.3117333333,32,8,practiceKeyPress
